,event_name,show_red,show_green,show_yellow,show_living_room,show_bathroom,show_kitchen,show_attention_question,answer_attention_question,show_binding_trials,stop_binding_trials,show_difficulty_question,answer_difficulty_question,show_object_in_test_trial,start_retrieval_time,answer_on_retrieval_time,show_retrieval_question,answer_retrieval_question,show_colors_answers,answer_color_question,show_scenes_answers,answer_scene_question,stage,trial_num,fl_trial_index,fl_feature,fl_word_question,fl_user_answer,fl_is_right,fl_feature_appear,bl_block,bl_object,bl_binding_trial,bl_binding_trial_in_block,bl_colors,bl_scenes,bl_difficulty,bl_binding_object_appear,tp_block,tp_object,tp_binding_trial,tp_colors,tp_scenes,tp_difficulty,tp_test_trial,tp_subject_color,tp_subject_scene,tp_color_correct,tp_scene_correct,tp_both_correct,tp_color_rt_ms,tp_scene_rt_ms,tp_first_question,tp_test_object_appear
0,show_yellow,,,0.0,,,,,,,,,,,,,,,,,,,fl,0,0,yellow,red,left,True,2026-04-12_13-05-37.108,,,,,,,,,,,,,,,,,,,,,,,,
1,show_attention_question,,,,,,,0.0,,,,,,,,,,,,,,,fl,0,0,yellow,red,left,True,2026-04-12_13-05-37.108,,,,,,,,,,,,,,,,,,,,,,,,
2,answer_attention_question,,,,,,,,0.0,,,,,,,,,,,,,,fl,0,0,yellow,red,left,True,2026-04-12_13-05-37.108,,,,,,,,,,,,,,,,,,,,,,,,
3,show_yellow,,,0.0,,,,,,,,,,,,,,,,,,,fl,1,1,yellow,yellow,right,True,2026-04-12_13-05-45.587,,,,,,,,,,,,,,,,,,,,,,,,
4,show_attention_question,,,,,,,0.0,,,,,,,,,,,,,,,fl,1,1,yellow,yellow,right,True,2026-04-12_13-05-45.587,,,,,,,,,,,,,,,,,,,,,,,,
5,answer_attention_question,,,,,,,,0.0,,,,,,,,,,,,,,fl,1,1,yellow,yellow,right,True,2026-04-12_13-05-45.587,,,,,,,,,,,,,,,,,,,,,,,,
6,show_bathroom,,,,,0.0,,,,,,,,,,,,,,,,,fl,2,2,bathroom,bathroom,right,True,2026-04-12_13-05-53.131,,,,,,,,,,,,,,,,,,,,,,,,
7,show_attention_question,,,,,,,0.0,,,,,,,,,,,,,,,fl,2,2,bathroom,bathroom,right,True,2026-04-12_13-05-53.131,,,,,,,,,,,,,,,,,,,,,,,,
8,answer_attention_question,,,,,,,,0.0,,,,,,,,,,,,,,fl,2,2,bathroom,bathroom,right,True,2026-04-12_13-05-53.131,,,,,,,,,,,,,,,,,,,,,,,,
9,show_bathroom,,,,,0.0,,,,,,,,,,,,,,,,,fl,3,3,bathroom,bathroom,right,True,2026-04-12_13-06-00.913,,,,,,,,,,,,,,,,,,,,,,,,
10,show_attention_question,,,,,,,0.0,,,,,,,,,,,,,,,fl,3,3,bathroom,bathroom,right,True,2026-04-12_13-06-00.913,,,,,,,,,,,,,,,,,,,,,,,,
11,answer_attention_question,,,,,,,,0.0,,,,,,,,,,,,,,fl,3,3,bathroom,bathroom,right,True,2026-04-12_13-06-00.913,,,,,,,,,,,,,,,,,,,,,,,,
12,show_kitchen,,,,,,0.0,,,,,,,,,,,,,,,,fl,4,4,kitchen,kitchen,right,True,2026-04-12_13-06-10.109,,,,,,,,,,,,,,,,,,,,,,,,
13,show_attention_question,,,,,,,0.0,,,,,,,,,,,,,,,fl,4,4,kitchen,kitchen,right,True,2026-04-12_13-06-10.109,,,,,,,,,,,,,,,,,,,,,,,,
14,answer_attention_question,,,,,,,,0.0,,,,,,,,,,,,,,fl,4,4,kitchen,kitchen,right,True,2026-04-12_13-06-10.109,,,,,,,,,,,,,,,,,,,,,,,,
15,show_bathroom,,,,,0.0,,,,,,,,,,,,,,,,,fl,5,5,bathroom,bathroom,right,True,2026-04-12_13-06-17.816,,,,,,,,,,,,,,,,,,,,,,,,
16,show_attention_question,,,,,,,0.0,,,,,,,,,,,,,,,fl,5,5,bathroom,bathroom,right,True,2026-04-12_13-06-17.816,,,,,,,,,,,,,,,,,,,,,,,,
17,answer_attention_question,,,,,,,,0.0,,,,,,,,,,,,,,fl,5,5,bathroom,bathroom,right,True,2026-04-12_13-06-17.816,,,,,,,,,,,,,,,,,,,,,,,,
18,show_red,0.0,,,,,,,,,,,,,,,,,,,,,fl,6,6,red,red,right,True,2026-04-12_13-06-26.228,,,,,,,,,,,,,,,,,,,,,,,,
19,show_attention_question,,,,,,,0.0,,,,,,,,,,,,,,,fl,6,6,red,red,right,True,2026-04-12_13-06-26.228,,,,,,,,,,,,,,,,,,,,,,,,
20,answer_attention_question,,,,,,,,0.0,,,,,,,,,,,,,,fl,6,6,red,red,right,True,2026-04-12_13-06-26.228,,,,,,,,,,,,,,,,,,,,,,,,
21,show_green,,0.0,,,,,,,,,,,,,,,,,,,,fl,7,7,green,green,right,True,2026-04-12_13-06-34.526,,,,,,,,,,,,,,,,,,,,,,,,
22,show_attention_question,,,,,,,0.0,,,,,,,,,,,,,,,fl,7,7,green,green,right,True,2026-04-12_13-06-34.526,,,,,,,,,,,,,,,,,,,,,,,,
23,answer_attention_question,,,,,,,,0.0,,,,,,,,,,,,,,fl,7,7,green,green,right,True,2026-04-12_13-06-34.526,,,,,,,,,,,,,,,,,,,,,,,,
24,show_kitchen,,,,,,0.0,,,,,,,,,,,,,,,,fl,8,8,kitchen,kitchen,right,True,2026-04-12_13-06-42.618,,,,,,,,,,,,,,,,,,,,,,,,
25,show_attention_question,,,,,,,0.0,,,,,,,,,,,,,,,fl,8,8,kitchen,kitchen,right,True,2026-04-12_13-06-42.618,,,,,,,,,,,,,,,,,,,,,,,,
26,answer_attention_question,,,,,,,,0.0,,,,,,,,,,,,,,fl,8,8,kitchen,kitchen,right,True,2026-04-12_13-06-42.618,,,,,,,,,,,,,,,,,,,,,,,,
27,show_living_room,,,,0.0,,,,,,,,,,,,,,,,,,fl,9,9,living_room,living_room,right,True,2026-04-12_13-06-50.652,,,,,,,,,,,,,,,,,,,,,,,,
28,show_attention_question,,,,,,,0.0,,,,,,,,,,,,,,,fl,9,9,living_room,living_room,right,True,2026-04-12_13-06-50.652,,,,,,,,,,,,,,,,,,,,,,,,
29,answer_attention_question,,,,,,,,0.0,,,,,,,,,,,,,,fl,9,9,living_room,living_room,right,True,2026-04-12_13-06-50.652,,,,,,,,,,,,,,,,,,,,,,,,
30,show_yellow,,,0.0,,,,,,,,,,,,,,,,,,,fl,10,10,yellow,yellow,right,True,2026-04-12_13-06-58.254,,,,,,,,,,,,,,,,,,,,,,,,
31,show_attention_question,,,,,,,0.0,,,,,,,,,,,,,,,fl,10,10,yellow,yellow,right,True,2026-04-12_13-06-58.254,,,,,,,,,,,,,,,,,,,,,,,,
32,answer_attention_question,,,,,,,,0.0,,,,,,,,,,,,,,fl,10,10,yellow,yellow,right,True,2026-04-12_13-06-58.254,,,,,,,,,,,,,,,,,,,,,,,,
33,show_green,,0.0,,,,,,,,,,,,,,,,,,,,fl,11,11,green,yellow,left,True,2026-04-12_13-07-06.616,,,,,,,,,,,,,,,,,,,,,,,,
34,show_attention_question,,,,,,,0.0,,,,,,,,,,,,,,,fl,11,11,green,yellow,left,True,2026-04-12_13-07-06.616,,,,,,,,,,,,,,,,,,,,,,,,
35,answer_attention_question,,,,,,,,0.0,,,,,,,,,,,,,,fl,11,11,green,yellow,left,True,2026-04-12_13-07-06.616,,,,,,,,,,,,,,,,,,,,,,,,
36,show_bathroom,,,,,0.0,,,,,,,,,,,,,,,,,fl,12,12,bathroom,bathroom,right,True,2026-04-12_13-07-15.443,,,,,,,,,,,,,,,,,,,,,,,,
37,show_attention_question,,,,,,,0.0,,,,,,,,,,,,,,,fl,12,12,bathroom,bathroom,right,True,2026-04-12_13-07-15.443,,,,,,,,,,,,,,,,,,,,,,,,
38,answer_attention_question,,,,,,,,0.0,,,,,,,,,,,,,,fl,12,12,bathroom,bathroom,right,True,2026-04-12_13-07-15.443,,,,,,,,,,,,,,,,,,,,,,,,
39,show_yellow,,,0.0,,,,,,,,,,,,,,,,,,,fl,13,13,yellow,green,left,True,2026-04-12_13-07-23.454,,,,,,,,,,,,,,,,,,,,,,,,
40,show_attention_question,,,,,,,0.0,,,,,,,,,,,,,,,fl,13,13,yellow,green,left,True,2026-04-12_13-07-23.454,,,,,,,,,,,,,,,,,,,,,,,,
41,answer_attention_question,,,,,,,,0.0,,,,,,,,,,,,,,fl,13,13,yellow,green,left,True,2026-04-12_13-07-23.454,,,,,,,,,,,,,,,,,,,,,,,,
42,show_yellow,,,0.0,,,,,,,,,,,,,,,,,,,fl,14,14,yellow,green,left,True,2026-04-12_13-07-32.258,,,,,,,,,,,,,,,,,,,,,,,,
43,show_attention_question,,,,,,,0.0,,,,,,,,,,,,,,,fl,14,14,yellow,green,left,True,2026-04-12_13-07-32.258,,,,,,,,,,,,,,,,,,,,,,,,
44,answer_attention_question,,,,,,,,0.0,,,,,,,,,,,,,,fl,14,14,yellow,green,left,True,2026-04-12_13-07-32.258,,,,,,,,,,,,,,,,,,,,,,,,
45,show_bathroom,,,,,0.0,,,,,,,,,,,,,,,,,fl,15,15,bathroom,bathroom,right,True,2026-04-12_13-07-39.724,,,,,,,,,,,,,,,,,,,,,,,,
46,show_attention_question,,,,,,,0.0,,,,,,,,,,,,,,,fl,15,15,bathroom,bathroom,right,True,2026-04-12_13-07-39.724,,,,,,,,,,,,,,,,,,,,,,,,
47,answer_attention_question,,,,,,,,0.0,,,,,,,,,,,,,,fl,15,15,bathroom,bathroom,right,True,2026-04-12_13-07-39.724,,,,,,,,,,,,,,,,,,,,,,,,
48,show_green,,0.0,,,,,,,,,,,,,,,,,,,,fl,16,16,green,yellow,left,True,2026-04-12_13-07-47.583,,,,,,,,,,,,,,,,,,,,,,,,
49,show_attention_question,,,,,,,0.0,,,,,,,,,,,,,,,fl,16,16,green,yellow,left,True,2026-04-12_13-07-47.583,,,,,,,,,,,,,,,,,,,,,,,,
50,answer_attention_question,,,,,,,,0.0,,,,,,,,,,,,,,fl,16,16,green,yellow,left,True,2026-04-12_13-07-47.583,,,,,,,,,,,,,,,,,,,,,,,,
51,show_kitchen,,,,,,0.0,,,,,,,,,,,,,,,,fl,17,17,kitchen,kitchen,right,True,2026-04-12_13-07-55.879,,,,,,,,,,,,,,,,,,,,,,,,
52,show_attention_question,,,,,,,0.0,,,,,,,,,,,,,,,fl,17,17,kitchen,kitchen,right,True,2026-04-12_13-07-55.879,,,,,,,,,,,,,,,,,,,,,,,,
53,answer_attention_question,,,,,,,,0.0,,,,,,,,,,,,,,fl,17,17,kitchen,kitchen,right,True,2026-04-12_13-07-55.879,,,,,,,,,,,,,,,,,,,,,,,,
54,show_green,,0.0,,,,,,,,,,,,,,,,,,,,fl,18,18,green,red,left,True,2026-04-12_13-08-04.156,,,,,,,,,,,,,,,,,,,,,,,,
55,show_attention_question,,,,,,,0.0,,,,,,,,,,,,,,,fl,18,18,green,red,left,True,2026-04-12_13-08-04.156,,,,,,,,,,,,,,,,,,,,,,,,
56,answer_attention_question,,,,,,,,0.0,,,,,,,,,,,,,,fl,18,18,green,red,left,True,2026-04-12_13-08-04.156,,,,,,,,,,,,,,,,,,,,,,,,
57,show_living_room,,,,0.0,,,,,,,,,,,,,,,,,,fl,19,19,living_room,living_room,right,True,2026-04-12_13-08-12.089,,,,,,,,,,,,,,,,,,,,,,,,
58,show_attention_question,,,,,,,0.0,,,,,,,,,,,,,,,fl,19,19,living_room,living_room,right,True,2026-04-12_13-08-12.089,,,,,,,,,,,,,,,,,,,,,,,,
59,answer_attention_question,,,,,,,,0.0,,,,,,,,,,,,,,fl,19,19,living_room,living_room,right,True,2026-04-12_13-08-12.089,,,,,,,,,,,,,,,,,,,,,,,,
60,show_living_room,,,,0.0,,,,,,,,,,,,,,,,,,fl,20,20,living_room,bathroom,left,True,2026-04-12_13-08-21.593,,,,,,,,,,,,,,,,,,,,,,,,
61,show_attention_question,,,,,,,0.0,,,,,,,,,,,,,,,fl,20,20,living_room,bathroom,left,True,2026-04-12_13-08-21.593,,,,,,,,,,,,,,,,,,,,,,,,
62,answer_attention_question,,,,,,,,0.0,,,,,,,,,,,,,,fl,20,20,living_room,bathroom,left,True,2026-04-12_13-08-21.593,,,,,,,,,,,,,,,,,,,,,,,,
63,show_yellow,,,0.0,,,,,,,,,,,,,,,,,,,fl,21,21,yellow,yellow,right,True,2026-04-12_13-08-30.549,,,,,,,,,,,,,,,,,,,,,,,,
64,show_attention_question,,,,,,,0.0,,,,,,,,,,,,,,,fl,21,21,yellow,yellow,right,True,2026-04-12_13-08-30.549,,,,,,,,,,,,,,,,,,,,,,,,
65,answer_attention_question,,,,,,,,0.0,,,,,,,,,,,,,,fl,21,21,yellow,yellow,right,True,2026-04-12_13-08-30.549,,,,,,,,,,,,,,,,,,,,,,,,
66,show_kitchen,,,,,,0.0,,,,,,,,,,,,,,,,fl,22,22,kitchen,living_room,left,True,2026-04-12_13-08-39.442,,,,,,,,,,,,,,,,,,,,,,,,
67,show_attention_question,,,,,,,0.0,,,,,,,,,,,,,,,fl,22,22,kitchen,living_room,left,True,2026-04-12_13-08-39.442,,,,,,,,,,,,,,,,,,,,,,,,
68,answer_attention_question,,,,,,,,0.0,,,,,,,,,,,,,,fl,22,22,kitchen,living_room,left,True,2026-04-12_13-08-39.442,,,,,,,,,,,,,,,,,,,,,,,,
69,show_yellow,,,0.0,,,,,,,,,,,,,,,,,,,fl,23,23,yellow,yellow,right,True,2026-04-12_13-08-48.336,,,,,,,,,,,,,,,,,,,,,,,,
70,show_attention_question,,,,,,,0.0,,,,,,,,,,,,,,,fl,23,23,yellow,yellow,right,True,2026-04-12_13-08-48.336,,,,,,,,,,,,,,,,,,,,,,,,
71,answer_attention_question,,,,,,,,0.0,,,,,,,,,,,,,,fl,23,23,yellow,yellow,right,True,2026-04-12_13-08-48.336,,,,,,,,,,,,,,,,,,,,,,,,
72,show_green,,0.0,,,,,,,,,,,,,,,,,,,,fl,24,24,green,red,left,True,2026-04-12_13-08-56.802,,,,,,,,,,,,,,,,,,,,,,,,
73,show_attention_question,,,,,,,0.0,,,,,,,,,,,,,,,fl,24,24,green,red,left,True,2026-04-12_13-08-56.802,,,,,,,,,,,,,,,,,,,,,,,,
74,answer_attention_question,,,,,,,,0.0,,,,,,,,,,,,,,fl,24,24,green,red,left,True,2026-04-12_13-08-56.802,,,,,,,,,,,,,,,,,,,,,,,,
75,show_red,0.0,,,,,,,,,,,,,,,,,,,,,fl,25,25,red,green,left,True,2026-04-12_13-09-04.834,,,,,,,,,,,,,,,,,,,,,,,,
76,show_attention_question,,,,,,,0.0,,,,,,,,,,,,,,,fl,25,25,red,green,left,True,2026-04-12_13-09-04.834,,,,,,,,,,,,,,,,,,,,,,,,
77,answer_attention_question,,,,,,,,0.0,,,,,,,,,,,,,,fl,25,25,red,green,left,True,2026-04-12_13-09-04.834,,,,,,,,,,,,,,,,,,,,,,,,
78,show_green,,0.0,,,,,,,,,,,,,,,,,,,,fl,26,26,green,green,right,True,2026-04-12_13-09-13.253,,,,,,,,,,,,,,,,,,,,,,,,
79,show_attention_question,,,,,,,0.0,,,,,,,,,,,,,,,fl,26,26,green,green,right,True,2026-04-12_13-09-13.253,,,,,,,,,,,,,,,,,,,,,,,,
80,answer_attention_question,,,,,,,,0.0,,,,,,,,,,,,,,fl,26,26,green,green,right,True,2026-04-12_13-09-13.253,,,,,,,,,,,,,,,,,,,,,,,,
81,show_yellow,,,0.0,,,,,,,,,,,,,,,,,,,fl,27,27,yellow,yellow,right,True,2026-04-12_13-09-20.921,,,,,,,,,,,,,,,,,,,,,,,,
82,show_attention_question,,,,,,,0.0,,,,,,,,,,,,,,,fl,27,27,yellow,yellow,right,True,2026-04-12_13-09-20.921,,,,,,,,,,,,,,,,,,,,,,,,
83,answer_attention_question,,,,,,,,0.0,,,,,,,,,,,,,,fl,27,27,yellow,yellow,right,True,2026-04-12_13-09-20.921,,,,,,,,,,,,,,,,,,,,,,,,
84,show_living_room,,,,0.0,,,,,,,,,,,,,,,,,,fl,28,28,living_room,living_room,right,True,2026-04-12_13-09-28.814,,,,,,,,,,,,,,,,,,,,,,,,
85,show_attention_question,,,,,,,0.0,,,,,,,,,,,,,,,fl,28,28,living_room,living_room,right,True,2026-04-12_13-09-28.814,,,,,,,,,,,,,,,,,,,,,,,,
86,answer_attention_question,,,,,,,,0.0,,,,,,,,,,,,,,fl,28,28,living_room,living_room,right,True,2026-04-12_13-09-28.814,,,,,,,,,,,,,,,,,,,,,,,,
87,show_living_room,,,,0.0,,,,,,,,,,,,,,,,,,fl,29,29,living_room,kitchen,left,True,2026-04-12_13-09-37.649,,,,,,,,,,,,,,,,,,,,,,,,
88,show_attention_question,,,,,,,0.0,,,,,,,,,,,,,,,fl,29,29,living_room,kitchen,left,True,2026-04-12_13-09-37.649,,,,,,,,,,,,,,,,,,,,,,,,
89,answer_attention_question,,,,,,,,0.0,,,,,,,,,,,,,,fl,29,29,living_room,kitchen,left,True,2026-04-12_13-09-37.649,,,,,,,,,,,,,,,,,,,,,,,,
90,show_bathroom,,,,,0.0,,,,,,,,,,,,,,,,,fl,30,30,bathroom,kitchen,left,True,2026-04-12_13-09-46.538,,,,,,,,,,,,,,,,,,,,,,,,
91,show_attention_question,,,,,,,0.0,,,,,,,,,,,,,,,fl,30,30,bathroom,kitchen,left,True,2026-04-12_13-09-46.538,,,,,,,,,,,,,,,,,,,,,,,,
92,answer_attention_question,,,,,,,,0.0,,,,,,,,,,,,,,fl,30,30,bathroom,kitchen,left,True,2026-04-12_13-09-46.538,,,,,,,,,,,,,,,,,,,,,,,,
93,show_living_room,,,,0.0,,,,,,,,,,,,,,,,,,fl,31,31,living_room,living_room,right,True,2026-04-12_13-09-56.453,,,,,,,,,,,,,,,,,,,,,,,,
94,show_attention_question,,,,,,,0.0,,,,,,,,,,,,,,,fl,31,31,living_room,living_room,right,True,2026-04-12_13-09-56.453,,,,,,,,,,,,,,,,,,,,,,,,
95,answer_attention_question,,,,,,,,0.0,,,,,,,,,,,,,,fl,31,31,living_room,living_room,right,True,2026-04-12_13-09-56.453,,,,,,,,,,,,,,,,,,,,,,,,
96,show_living_room,,,,0.0,,,,,,,,,,,,,,,,,,fl,32,32,living_room,kitchen,left,True,2026-04-12_13-10-03.699,,,,,,,,,,,,,,,,,,,,,,,,
97,show_attention_question,,,,,,,0.0,,,,,,,,,,,,,,,fl,32,32,living_room,kitchen,left,True,2026-04-12_13-10-03.699,,,,,,,,,,,,,,,,,,,,,,,,
98,answer_attention_question,,,,,,,,0.0,,,,,,,,,,,,,,fl,32,32,living_room,kitchen,left,True,2026-04-12_13-10-03.699,,,,,,,,,,,,,,,,,,,,,,,,
99,show_kitchen,,,,,,0.0,,,,,,,,,,,,,,,,fl,33,33,kitchen,kitchen,right,True,2026-04-12_13-10-12.887,,,,,,,,,,,,,,,,,,,,,,,,
100,show_attention_question,,,,,,,0.0,,,,,,,,,,,,,,,fl,33,33,kitchen,kitchen,right,True,2026-04-12_13-10-12.887,,,,,,,,,,,,,,,,,,,,,,,,
101,answer_attention_question,,,,,,,,0.0,,,,,,,,,,,,,,fl,33,33,kitchen,kitchen,right,True,2026-04-12_13-10-12.887,,,,,,,,,,,,,,,,,,,,,,,,
102,show_bathroom,,,,,0.0,,,,,,,,,,,,,,,,,fl,34,34,bathroom,bathroom,right,True,2026-04-12_13-10-21.902,,,,,,,,,,,,,,,,,,,,,,,,
103,show_attention_question,,,,,,,0.0,,,,,,,,,,,,,,,fl,34,34,bathroom,bathroom,right,True,2026-04-12_13-10-21.902,,,,,,,,,,,,,,,,,,,,,,,,
104,answer_attention_question,,,,,,,,0.0,,,,,,,,,,,,,,fl,34,34,bathroom,bathroom,right,True,2026-04-12_13-10-21.902,,,,,,,,,,,,,,,,,,,,,,,,
105,show_red,0.0,,,,,,,,,,,,,,,,,,,,,fl,35,35,red,yellow,left,True,2026-04-12_13-10-31.022,,,,,,,,,,,,,,,,,,,,,,,,
106,show_attention_question,,,,,,,0.0,,,,,,,,,,,,,,,fl,35,35,red,yellow,left,True,2026-04-12_13-10-31.022,,,,,,,,,,,,,,,,,,,,,,,,
107,answer_attention_question,,,,,,,,0.0,,,,,,,,,,,,,,fl,35,35,red,yellow,left,True,2026-04-12_13-10-31.022,,,,,,,,,,,,,,,,,,,,,,,,
108,show_red,0.0,,,,,,,,,,,,,,,,,,,,,fl,36,36,red,red,right,True,2026-04-12_13-10-38.806,,,,,,,,,,,,,,,,,,,,,,,,
109,show_attention_question,,,,,,,0.0,,,,,,,,,,,,,,,fl,36,36,red,red,right,True,2026-04-12_13-10-38.806,,,,,,,,,,,,,,,,,,,,,,,,
110,answer_attention_question,,,,,,,,0.0,,,,,,,,,,,,,,fl,36,36,red,red,right,True,2026-04-12_13-10-38.806,,,,,,,,,,,,,,,,,,,,,,,,
111,show_kitchen,,,,,,0.0,,,,,,,,,,,,,,,,fl,37,37,kitchen,bathroom,left,True,2026-04-12_13-10-47.365,,,,,,,,,,,,,,,,,,,,,,,,
112,show_attention_question,,,,,,,0.0,,,,,,,,,,,,,,,fl,37,37,kitchen,bathroom,left,True,2026-04-12_13-10-47.365,,,,,,,,,,,,,,,,,,,,,,,,
113,answer_attention_question,,,,,,,,0.0,,,,,,,,,,,,,,fl,37,37,kitchen,bathroom,left,True,2026-04-12_13-10-47.365,,,,,,,,,,,,,,,,,,,,,,,,
114,show_bathroom,,,,,0.0,,,,,,,,,,,,,,,,,fl,38,38,bathroom,living_room,left,True,2026-04-12_13-10-56.613,,,,,,,,,,,,,,,,,,,,,,,,
115,show_attention_question,,,,,,,0.0,,,,,,,,,,,,,,,fl,38,38,bathroom,living_room,left,True,2026-04-12_13-10-56.613,,,,,,,,,,,,,,,,,,,,,,,,
116,answer_attention_question,,,,,,,,0.0,,,,,,,,,,,,,,fl,38,38,bathroom,living_room,left,True,2026-04-12_13-10-56.613,,,,,,,,,,,,,,,,,,,,,,,,
117,show_green,,0.0,,,,,,,,,,,,,,,,,,,,fl,39,39,green,yellow,left,True,2026-04-12_13-11-05.575,,,,,,,,,,,,,,,,,,,,,,,,
118,show_attention_question,,,,,,,0.0,,,,,,,,,,,,,,,fl,39,39,green,yellow,left,True,2026-04-12_13-11-05.575,,,,,,,,,,,,,,,,,,,,,,,,
119,answer_attention_question,,,,,,,,0.0,,,,,,,,,,,,,,fl,39,39,green,yellow,left,True,2026-04-12_13-11-05.575,,,,,,,,,,,,,,,,,,,,,,,,
120,show_kitchen,,,,,,0.0,,,,,,,,,,,,,,,,fl,40,40,kitchen,kitchen,right,True,2026-04-12_13-11-13.357,,,,,,,,,,,,,,,,,,,,,,,,
121,show_attention_question,,,,,,,0.0,,,,,,,,,,,,,,,fl,40,40,kitchen,kitchen,right,True,2026-04-12_13-11-13.357,,,,,,,,,,,,,,,,,,,,,,,,
122,answer_attention_question,,,,,,,,0.0,,,,,,,,,,,,,,fl,40,40,kitchen,kitchen,right,True,2026-04-12_13-11-13.357,,,,,,,,,,,,,,,,,,,,,,,,
123,show_kitchen,,,,,,0.0,,,,,,,,,,,,,,,,fl,41,41,kitchen,kitchen,right,True,2026-04-12_13-11-23.115,,,,,,,,,,,,,,,,,,,,,,,,
124,show_attention_question,,,,,,,0.0,,,,,,,,,,,,,,,fl,41,41,kitchen,kitchen,right,True,2026-04-12_13-11-23.115,,,,,,,,,,,,,,,,,,,,,,,,
125,answer_attention_question,,,,,,,,0.0,,,,,,,,,,,,,,fl,41,41,kitchen,kitchen,right,True,2026-04-12_13-11-23.115,,,,,,,,,,,,,,,,,,,,,,,,
126,show_green,,0.0,,,,,,,,,,,,,,,,,,,,fl,42,42,green,green,right,True,2026-04-12_13-11-32.076,,,,,,,,,,,,,,,,,,,,,,,,
127,show_attention_question,,,,,,,0.0,,,,,,,,,,,,,,,fl,42,42,green,green,right,True,2026-04-12_13-11-32.076,,,,,,,,,,,,,,,,,,,,,,,,
128,answer_attention_question,,,,,,,,0.0,,,,,,,,,,,,,,fl,42,42,green,green,right,True,2026-04-12_13-11-32.076,,,,,,,,,,,,,,,,,,,,,,,,
129,show_green,,0.0,,,,,,,,,,,,,,,,,,,,fl,43,43,green,red,left,True,2026-04-12_13-11-41.166,,,,,,,,,,,,,,,,,,,,,,,,
130,show_attention_question,,,,,,,0.0,,,,,,,,,,,,,,,fl,43,43,green,red,left,True,2026-04-12_13-11-41.166,,,,,,,,,,,,,,,,,,,,,,,,
131,answer_attention_question,,,,,,,,0.0,,,,,,,,,,,,,,fl,43,43,green,red,left,True,2026-04-12_13-11-41.166,,,,,,,,,,,,,,,,,,,,,,,,
132,show_kitchen,,,,,,0.0,,,,,,,,,,,,,,,,fl,44,44,kitchen,living_room,left,True,2026-04-12_13-11-48.552,,,,,,,,,,,,,,,,,,,,,,,,
133,show_attention_question,,,,,,,0.0,,,,,,,,,,,,,,,fl,44,44,kitchen,living_room,left,True,2026-04-12_13-11-48.552,,,,,,,,,,,,,,,,,,,,,,,,
134,answer_attention_question,,,,,,,,0.0,,,,,,,,,,,,,,fl,44,44,kitchen,living_room,left,True,2026-04-12_13-11-48.552,,,,,,,,,,,,,,,,,,,,,,,,
135,show_bathroom,,,,,0.0,,,,,,,,,,,,,,,,,fl,45,45,bathroom,bathroom,right,True,2026-04-12_13-11-57.209,,,,,,,,,,,,,,,,,,,,,,,,
136,show_attention_question,,,,,,,0.0,,,,,,,,,,,,,,,fl,45,45,bathroom,bathroom,right,True,2026-04-12_13-11-57.209,,,,,,,,,,,,,,,,,,,,,,,,
137,answer_attention_question,,,,,,,,0.0,,,,,,,,,,,,,,fl,45,45,bathroom,bathroom,right,True,2026-04-12_13-11-57.209,,,,,,,,,,,,,,,,,,,,,,,,
138,show_bathroom,,,,,0.0,,,,,,,,,,,,,,,,,fl,46,46,bathroom,kitchen,left,True,2026-04-12_13-12-07.406,,,,,,,,,,,,,,,,,,,,,,,,
139,show_attention_question,,,,,,,0.0,,,,,,,,,,,,,,,fl,46,46,bathroom,kitchen,left,True,2026-04-12_13-12-07.406,,,,,,,,,,,,,,,,,,,,,,,,
140,answer_attention_question,,,,,,,,0.0,,,,,,,,,,,,,,fl,46,46,bathroom,kitchen,left,True,2026-04-12_13-12-07.406,,,,,,,,,,,,,,,,,,,,,,,,
141,show_yellow,,,0.0,,,,,,,,,,,,,,,,,,,fl,47,47,yellow,yellow,right,True,2026-04-12_13-12-16.534,,,,,,,,,,,,,,,,,,,,,,,,
142,show_attention_question,,,,,,,0.0,,,,,,,,,,,,,,,fl,47,47,yellow,yellow,right,True,2026-04-12_13-12-16.534,,,,,,,,,,,,,,,,,,,,,,,,
143,answer_attention_question,,,,,,,,0.0,,,,,,,,,,,,,,fl,47,47,yellow,yellow,right,True,2026-04-12_13-12-16.534,,,,,,,,,,,,,,,,,,,,,,,,
144,show_yellow,,,0.0,,,,,,,,,,,,,,,,,,,fl,48,48,yellow,yellow,right,True,2026-04-12_13-12-25.156,,,,,,,,,,,,,,,,,,,,,,,,
145,show_attention_question,,,,,,,0.0,,,,,,,,,,,,,,,fl,48,48,yellow,yellow,right,True,2026-04-12_13-12-25.156,,,,,,,,,,,,,,,,,,,,,,,,
146,answer_attention_question,,,,,,,,0.0,,,,,,,,,,,,,,fl,48,48,yellow,yellow,right,True,2026-04-12_13-12-25.156,,,,,,,,,,,,,,,,,,,,,,,,
147,show_red,0.0,,,,,,,,,,,,,,,,,,,,,fl,49,49,red,red,right,True,2026-04-12_13-12-32.124,,,,,,,,,,,,,,,,,,,,,,,,
148,show_attention_question,,,,,,,0.0,,,,,,,,,,,,,,,fl,49,49,red,red,right,True,2026-04-12_13-12-32.124,,,,,,,,,,,,,,,,,,,,,,,,
149,answer_attention_question,,,,,,,,0.0,,,,,,,,,,,,,,fl,49,49,red,red,right,True,2026-04-12_13-12-32.124,,,,,,,,,,,,,,,,,,,,,,,,
150,show_yellow,,,0.0,,,,,,,,,,,,,,,,,,,fl,50,50,yellow,yellow,right,True,2026-04-12_13-12-54.293,,,,,,,,,,,,,,,,,,,,,,,,
151,show_attention_question,,,,,,,0.0,,,,,,,,,,,,,,,fl,50,50,yellow,yellow,right,True,2026-04-12_13-12-54.293,,,,,,,,,,,,,,,,,,,,,,,,
152,answer_attention_question,,,,,,,,0.0,,,,,,,,,,,,,,fl,50,50,yellow,yellow,right,True,2026-04-12_13-12-54.293,,,,,,,,,,,,,,,,,,,,,,,,
153,show_kitchen,,,,,,0.0,,,,,,,,,,,,,,,,fl,51,51,kitchen,kitchen,right,True,2026-04-12_13-13-01.722,,,,,,,,,,,,,,,,,,,,,,,,
154,show_attention_question,,,,,,,0.0,,,,,,,,,,,,,,,fl,51,51,kitchen,kitchen,right,True,2026-04-12_13-13-01.722,,,,,,,,,,,,,,,,,,,,,,,,
155,answer_attention_question,,,,,,,,0.0,,,,,,,,,,,,,,fl,51,51,kitchen,kitchen,right,True,2026-04-12_13-13-01.722,,,,,,,,,,,,,,,,,,,,,,,,
156,show_bathroom,,,,,0.0,,,,,,,,,,,,,,,,,fl,52,52,bathroom,bathroom,right,True,2026-04-12_13-13-11.038,,,,,,,,,,,,,,,,,,,,,,,,
157,show_attention_question,,,,,,,0.0,,,,,,,,,,,,,,,fl,52,52,bathroom,bathroom,right,True,2026-04-12_13-13-11.038,,,,,,,,,,,,,,,,,,,,,,,,
158,answer_attention_question,,,,,,,,0.0,,,,,,,,,,,,,,fl,52,52,bathroom,bathroom,right,True,2026-04-12_13-13-11.038,,,,,,,,,,,,,,,,,,,,,,,,
159,show_red,0.0,,,,,,,,,,,,,,,,,,,,,fl,53,53,red,yellow,left,True,2026-04-12_13-13-19.726,,,,,,,,,,,,,,,,,,,,,,,,
160,show_attention_question,,,,,,,0.0,,,,,,,,,,,,,,,fl,53,53,red,yellow,left,True,2026-04-12_13-13-19.726,,,,,,,,,,,,,,,,,,,,,,,,
161,answer_attention_question,,,,,,,,0.0,,,,,,,,,,,,,,fl,53,53,red,yellow,left,True,2026-04-12_13-13-19.726,,,,,,,,,,,,,,,,,,,,,,,,
162,show_bathroom,,,,,0.0,,,,,,,,,,,,,,,,,fl,54,54,bathroom,bathroom,right,True,2026-04-12_13-13-29.125,,,,,,,,,,,,,,,,,,,,,,,,
163,show_attention_question,,,,,,,0.0,,,,,,,,,,,,,,,fl,54,54,bathroom,bathroom,right,True,2026-04-12_13-13-29.125,,,,,,,,,,,,,,,,,,,,,,,,
164,answer_attention_question,,,,,,,,0.0,,,,,,,,,,,,,,fl,54,54,bathroom,bathroom,right,True,2026-04-12_13-13-29.125,,,,,,,,,,,,,,,,,,,,,,,,
165,show_bathroom,,,,,0.0,,,,,,,,,,,,,,,,,fl,55,55,bathroom,kitchen,left,True,2026-04-12_13-13-38.021,,,,,,,,,,,,,,,,,,,,,,,,
166,show_attention_question,,,,,,,0.0,,,,,,,,,,,,,,,fl,55,55,bathroom,kitchen,left,True,2026-04-12_13-13-38.021,,,,,,,,,,,,,,,,,,,,,,,,
167,answer_attention_question,,,,,,,,0.0,,,,,,,,,,,,,,fl,55,55,bathroom,kitchen,left,True,2026-04-12_13-13-38.021,,,,,,,,,,,,,,,,,,,,,,,,
168,show_yellow,,,0.0,,,,,,,,,,,,,,,,,,,fl,56,56,yellow,yellow,right,True,2026-04-12_13-13-47.008,,,,,,,,,,,,,,,,,,,,,,,,
169,show_attention_question,,,,,,,0.0,,,,,,,,,,,,,,,fl,56,56,yellow,yellow,right,True,2026-04-12_13-13-47.008,,,,,,,,,,,,,,,,,,,,,,,,
170,answer_attention_question,,,,,,,,0.0,,,,,,,,,,,,,,fl,56,56,yellow,yellow,right,True,2026-04-12_13-13-47.008,,,,,,,,,,,,,,,,,,,,,,,,
171,show_green,,0.0,,,,,,,,,,,,,,,,,,,,fl,57,57,green,yellow,left,True,2026-04-12_13-13-55.159,,,,,,,,,,,,,,,,,,,,,,,,
172,show_attention_question,,,,,,,0.0,,,,,,,,,,,,,,,fl,57,57,green,yellow,left,True,2026-04-12_13-13-55.159,,,,,,,,,,,,,,,,,,,,,,,,
173,answer_attention_question,,,,,,,,0.0,,,,,,,,,,,,,,fl,57,57,green,yellow,left,True,2026-04-12_13-13-55.159,,,,,,,,,,,,,,,,,,,,,,,,
174,show_red,0.0,,,,,,,,,,,,,,,,,,,,,fl,58,58,red,red,right,True,2026-04-12_13-14-03.071,,,,,,,,,,,,,,,,,,,,,,,,
175,show_attention_question,,,,,,,0.0,,,,,,,,,,,,,,,fl,58,58,red,red,right,True,2026-04-12_13-14-03.071,,,,,,,,,,,,,,,,,,,,,,,,
176,answer_attention_question,,,,,,,,0.0,,,,,,,,,,,,,,fl,58,58,red,red,right,True,2026-04-12_13-14-03.071,,,,,,,,,,,,,,,,,,,,,,,,
177,show_living_room,,,,0.0,,,,,,,,,,,,,,,,,,fl,59,59,living_room,living_room,right,True,2026-04-12_13-14-10.655,,,,,,,,,,,,,,,,,,,,,,,,
178,show_attention_question,,,,,,,0.0,,,,,,,,,,,,,,,fl,59,59,living_room,living_room,right,True,2026-04-12_13-14-10.655,,,,,,,,,,,,,,,,,,,,,,,,
179,answer_attention_question,,,,,,,,0.0,,,,,,,,,,,,,,fl,59,59,living_room,living_room,right,True,2026-04-12_13-14-10.655,,,,,,,,,,,,,,,,,,,,,,,,
180,show_living_room,,,,0.0,,,,,,,,,,,,,,,,,,fl,60,60,living_room,bathroom,left,True,2026-04-12_13-14-19.058,,,,,,,,,,,,,,,,,,,,,,,,
181,show_attention_question,,,,,,,0.0,,,,,,,,,,,,,,,fl,60,60,living_room,bathroom,left,True,2026-04-12_13-14-19.058,,,,,,,,,,,,,,,,,,,,,,,,
182,answer_attention_question,,,,,,,,0.0,,,,,,,,,,,,,,fl,60,60,living_room,bathroom,left,True,2026-04-12_13-14-19.058,,,,,,,,,,,,,,,,,,,,,,,,
183,show_red,0.0,,,,,,,,,,,,,,,,,,,,,fl,61,61,red,red,right,True,2026-04-12_13-14-28.825,,,,,,,,,,,,,,,,,,,,,,,,
184,show_attention_question,,,,,,,0.0,,,,,,,,,,,,,,,fl,61,61,red,red,right,True,2026-04-12_13-14-28.825,,,,,,,,,,,,,,,,,,,,,,,,
185,answer_attention_question,,,,,,,,0.0,,,,,,,,,,,,,,fl,61,61,red,red,right,True,2026-04-12_13-14-28.825,,,,,,,,,,,,,,,,,,,,,,,,
186,show_yellow,,,0.0,,,,,,,,,,,,,,,,,,,fl,62,62,yellow,yellow,right,True,2026-04-12_13-14-37.427,,,,,,,,,,,,,,,,,,,,,,,,
187,show_attention_question,,,,,,,0.0,,,,,,,,,,,,,,,fl,62,62,yellow,yellow,right,True,2026-04-12_13-14-37.427,,,,,,,,,,,,,,,,,,,,,,,,
188,answer_attention_question,,,,,,,,0.0,,,,,,,,,,,,,,fl,62,62,yellow,yellow,right,True,2026-04-12_13-14-37.427,,,,,,,,,,,,,,,,,,,,,,,,
189,show_kitchen,,,,,,0.0,,,,,,,,,,,,,,,,fl,63,63,kitchen,kitchen,right,True,2026-04-12_13-14-44.813,,,,,,,,,,,,,,,,,,,,,,,,
190,show_attention_question,,,,,,,0.0,,,,,,,,,,,,,,,fl,63,63,kitchen,kitchen,right,True,2026-04-12_13-14-44.813,,,,,,,,,,,,,,,,,,,,,,,,
191,answer_attention_question,,,,,,,,0.0,,,,,,,,,,,,,,fl,63,63,kitchen,kitchen,right,True,2026-04-12_13-14-44.813,,,,,,,,,,,,,,,,,,,,,,,,
192,show_green,,0.0,,,,,,,,,,,,,,,,,,,,fl,64,64,green,green,right,True,2026-04-12_13-14-53.843,,,,,,,,,,,,,,,,,,,,,,,,
193,show_attention_question,,,,,,,0.0,,,,,,,,,,,,,,,fl,64,64,green,green,right,True,2026-04-12_13-14-53.843,,,,,,,,,,,,,,,,,,,,,,,,
194,answer_attention_question,,,,,,,,0.0,,,,,,,,,,,,,,fl,64,64,green,green,right,True,2026-04-12_13-14-53.843,,,,,,,,,,,,,,,,,,,,,,,,
195,show_bathroom,,,,,0.0,,,,,,,,,,,,,,,,,fl,65,65,bathroom,bathroom,right,True,2026-04-12_13-15-02.219,,,,,,,,,,,,,,,,,,,,,,,,
196,show_attention_question,,,,,,,0.0,,,,,,,,,,,,,,,fl,65,65,bathroom,bathroom,right,True,2026-04-12_13-15-02.219,,,,,,,,,,,,,,,,,,,,,,,,
197,answer_attention_question,,,,,,,,0.0,,,,,,,,,,,,,,fl,65,65,bathroom,bathroom,right,True,2026-04-12_13-15-02.219,,,,,,,,,,,,,,,,,,,,,,,,
198,show_green,,0.0,,,,,,,,,,,,,,,,,,,,fl,66,66,green,green,right,True,2026-04-12_13-15-09.573,,,,,,,,,,,,,,,,,,,,,,,,
199,show_attention_question,,,,,,,0.0,,,,,,,,,,,,,,,fl,66,66,green,green,right,True,2026-04-12_13-15-09.573,,,,,,,,,,,,,,,,,,,,,,,,
200,answer_attention_question,,,,,,,,0.0,,,,,,,,,,,,,,fl,66,66,green,green,right,True,2026-04-12_13-15-09.573,,,,,,,,,,,,,,,,,,,,,,,,
201,show_kitchen,,,,,,0.0,,,,,,,,,,,,,,,,fl,67,67,kitchen,kitchen,right,True,2026-04-12_13-15-17.620,,,,,,,,,,,,,,,,,,,,,,,,
202,show_attention_question,,,,,,,0.0,,,,,,,,,,,,,,,fl,67,67,kitchen,kitchen,right,True,2026-04-12_13-15-17.620,,,,,,,,,,,,,,,,,,,,,,,,
203,answer_attention_question,,,,,,,,0.0,,,,,,,,,,,,,,fl,67,67,kitchen,kitchen,right,True,2026-04-12_13-15-17.620,,,,,,,,,,,,,,,,,,,,,,,,
204,show_red,0.0,,,,,,,,,,,,,,,,,,,,,fl,68,68,red,red,right,True,2026-04-12_13-15-25.675,,,,,,,,,,,,,,,,,,,,,,,,
205,show_attention_question,,,,,,,0.0,,,,,,,,,,,,,,,fl,68,68,red,red,right,True,2026-04-12_13-15-25.675,,,,,,,,,,,,,,,,,,,,,,,,
206,answer_attention_question,,,,,,,,0.0,,,,,,,,,,,,,,fl,68,68,red,red,right,True,2026-04-12_13-15-25.675,,,,,,,,,,,,,,,,,,,,,,,,
207,show_kitchen,,,,,,0.0,,,,,,,,,,,,,,,,fl,69,69,kitchen,kitchen,right,True,2026-04-12_13-15-35.479,,,,,,,,,,,,,,,,,,,,,,,,
208,show_attention_question,,,,,,,0.0,,,,,,,,,,,,,,,fl,69,69,kitchen,kitchen,right,True,2026-04-12_13-15-35.479,,,,,,,,,,,,,,,,,,,,,,,,
209,answer_attention_question,,,,,,,,0.0,,,,,,,,,,,,,,fl,69,69,kitchen,kitchen,right,True,2026-04-12_13-15-35.479,,,,,,,,,,,,,,,,,,,,,,,,
210,show_living_room,,,,0.0,,,,,,,,,,,,,,,,,,fl,70,70,living_room,bathroom,left,True,2026-04-12_13-15-43.427,,,,,,,,,,,,,,,,,,,,,,,,
211,show_attention_question,,,,,,,0.0,,,,,,,,,,,,,,,fl,70,70,living_room,bathroom,left,True,2026-04-12_13-15-43.427,,,,,,,,,,,,,,,,,,,,,,,,
212,answer_attention_question,,,,,,,,0.0,,,,,,,,,,,,,,fl,70,70,living_room,bathroom,left,True,2026-04-12_13-15-43.427,,,,,,,,,,,,,,,,,,,,,,,,
213,show_red,0.0,,,,,,,,,,,,,,,,,,,,,fl,71,71,red,green,left,True,2026-04-12_13-15-51.651,,,,,,,,,,,,,,,,,,,,,,,,
214,show_attention_question,,,,,,,0.0,,,,,,,,,,,,,,,fl,71,71,red,green,left,True,2026-04-12_13-15-51.651,,,,,,,,,,,,,,,,,,,,,,,,
215,answer_attention_question,,,,,,,,0.0,,,,,,,,,,,,,,fl,71,71,red,green,left,True,2026-04-12_13-15-51.651,,,,,,,,,,,,,,,,,,,,,,,,
216,show_bathroom,,,,,0.0,,,,,,,,,,,,,,,,,fl,72,72,bathroom,living_room,left,True,2026-04-12_13-16-00.716,,,,,,,,,,,,,,,,,,,,,,,,
217,show_attention_question,,,,,,,0.0,,,,,,,,,,,,,,,fl,72,72,bathroom,living_room,left,True,2026-04-12_13-16-00.716,,,,,,,,,,,,,,,,,,,,,,,,
218,answer_attention_question,,,,,,,,0.0,,,,,,,,,,,,,,fl,72,72,bathroom,living_room,left,True,2026-04-12_13-16-00.716,,,,,,,,,,,,,,,,,,,,,,,,
219,show_kitchen,,,,,,0.0,,,,,,,,,,,,,,,,fl,73,73,kitchen,bathroom,left,True,2026-04-12_13-16-09.188,,,,,,,,,,,,,,,,,,,,,,,,
220,show_attention_question,,,,,,,0.0,,,,,,,,,,,,,,,fl,73,73,kitchen,bathroom,left,True,2026-04-12_13-16-09.188,,,,,,,,,,,,,,,,,,,,,,,,
221,answer_attention_question,,,,,,,,0.0,,,,,,,,,,,,,,fl,73,73,kitchen,bathroom,left,True,2026-04-12_13-16-09.188,,,,,,,,,,,,,,,,,,,,,,,,
222,show_red,0.0,,,,,,,,,,,,,,,,,,,,,fl,74,74,red,yellow,left,True,2026-04-12_13-16-16.781,,,,,,,,,,,,,,,,,,,,,,,,
223,show_attention_question,,,,,,,0.0,,,,,,,,,,,,,,,fl,74,74,red,yellow,left,True,2026-04-12_13-16-16.781,,,,,,,,,,,,,,,,,,,,,,,,
224,answer_attention_question,,,,,,,,0.0,,,,,,,,,,,,,,fl,74,74,red,yellow,left,True,2026-04-12_13-16-16.781,,,,,,,,,,,,,,,,,,,,,,,,
225,show_bathroom,,,,,0.0,,,,,,,,,,,,,,,,,fl,75,75,bathroom,bathroom,right,True,2026-04-12_13-16-25.342,,,,,,,,,,,,,,,,,,,,,,,,
226,show_attention_question,,,,,,,0.0,,,,,,,,,,,,,,,fl,75,75,bathroom,bathroom,right,True,2026-04-12_13-16-25.342,,,,,,,,,,,,,,,,,,,,,,,,
227,answer_attention_question,,,,,,,,0.0,,,,,,,,,,,,,,fl,75,75,bathroom,bathroom,right,True,2026-04-12_13-16-25.342,,,,,,,,,,,,,,,,,,,,,,,,
228,show_red,0.0,,,,,,,,,,,,,,,,,,,,,fl,76,76,red,red,right,True,2026-04-12_13-16-32.960,,,,,,,,,,,,,,,,,,,,,,,,
229,show_attention_question,,,,,,,0.0,,,,,,,,,,,,,,,fl,76,76,red,red,right,True,2026-04-12_13-16-32.960,,,,,,,,,,,,,,,,,,,,,,,,
230,answer_attention_question,,,,,,,,0.0,,,,,,,,,,,,,,fl,76,76,red,red,right,True,2026-04-12_13-16-32.960,,,,,,,,,,,,,,,,,,,,,,,,
231,show_kitchen,,,,,,0.0,,,,,,,,,,,,,,,,fl,77,77,kitchen,bathroom,left,True,2026-04-12_13-16-41.328,,,,,,,,,,,,,,,,,,,,,,,,
232,show_attention_question,,,,,,,0.0,,,,,,,,,,,,,,,fl,77,77,kitchen,bathroom,left,True,2026-04-12_13-16-41.328,,,,,,,,,,,,,,,,,,,,,,,,
233,answer_attention_question,,,,,,,,0.0,,,,,,,,,,,,,,fl,77,77,kitchen,bathroom,left,True,2026-04-12_13-16-41.328,,,,,,,,,,,,,,,,,,,,,,,,
234,show_yellow,,,0.0,,,,,,,,,,,,,,,,,,,fl,78,78,yellow,green,left,True,2026-04-12_13-16-48.429,,,,,,,,,,,,,,,,,,,,,,,,
235,show_attention_question,,,,,,,0.0,,,,,,,,,,,,,,,fl,78,78,yellow,green,left,True,2026-04-12_13-16-48.429,,,,,,,,,,,,,,,,,,,,,,,,
236,answer_attention_question,,,,,,,,0.0,,,,,,,,,,,,,,fl,78,78,yellow,green,left,True,2026-04-12_13-16-48.429,,,,,,,,,,,,,,,,,,,,,,,,
237,show_bathroom,,,,,0.0,,,,,,,,,,,,,,,,,fl,79,79,bathroom,living_room,left,True,2026-04-12_13-16-57.325,,,,,,,,,,,,,,,,,,,,,,,,
238,show_attention_question,,,,,,,0.0,,,,,,,,,,,,,,,fl,79,79,bathroom,living_room,left,True,2026-04-12_13-16-57.325,,,,,,,,,,,,,,,,,,,,,,,,
239,answer_attention_question,,,,,,,,0.0,,,,,,,,,,,,,,fl,79,79,bathroom,living_room,left,True,2026-04-12_13-16-57.325,,,,,,,,,,,,,,,,,,,,,,,,
240,show_living_room,,,,0.0,,,,,,,,,,,,,,,,,,fl,80,80,living_room,living_room,right,True,2026-04-12_13-17-06.657,,,,,,,,,,,,,,,,,,,,,,,,
241,show_attention_question,,,,,,,0.0,,,,,,,,,,,,,,,fl,80,80,living_room,living_room,right,True,2026-04-12_13-17-06.657,,,,,,,,,,,,,,,,,,,,,,,,
242,answer_attention_question,,,,,,,,0.0,,,,,,,,,,,,,,fl,80,80,living_room,living_room,right,True,2026-04-12_13-17-06.657,,,,,,,,,,,,,,,,,,,,,,,,
243,show_yellow,,,0.0,,,,,,,,,,,,,,,,,,,fl,81,81,yellow,yellow,right,True,2026-04-12_13-17-14.723,,,,,,,,,,,,,,,,,,,,,,,,
244,show_attention_question,,,,,,,0.0,,,,,,,,,,,,,,,fl,81,81,yellow,yellow,right,True,2026-04-12_13-17-14.723,,,,,,,,,,,,,,,,,,,,,,,,
245,answer_attention_question,,,,,,,,0.0,,,,,,,,,,,,,,fl,81,81,yellow,yellow,right,True,2026-04-12_13-17-14.723,,,,,,,,,,,,,,,,,,,,,,,,
246,show_kitchen,,,,,,0.0,,,,,,,,,,,,,,,,fl,82,82,kitchen,kitchen,right,True,2026-04-12_13-17-22.622,,,,,,,,,,,,,,,,,,,,,,,,
247,show_attention_question,,,,,,,0.0,,,,,,,,,,,,,,,fl,82,82,kitchen,kitchen,right,True,2026-04-12_13-17-22.622,,,,,,,,,,,,,,,,,,,,,,,,
248,answer_attention_question,,,,,,,,0.0,,,,,,,,,,,,,,fl,82,82,kitchen,kitchen,right,True,2026-04-12_13-17-22.622,,,,,,,,,,,,,,,,,,,,,,,,
249,show_kitchen,,,,,,0.0,,,,,,,,,,,,,,,,fl,83,83,kitchen,kitchen,right,True,2026-04-12_13-17-31.225,,,,,,,,,,,,,,,,,,,,,,,,
250,show_attention_question,,,,,,,0.0,,,,,,,,,,,,,,,fl,83,83,kitchen,kitchen,right,True,2026-04-12_13-17-31.225,,,,,,,,,,,,,,,,,,,,,,,,
251,answer_attention_question,,,,,,,,0.0,,,,,,,,,,,,,,fl,83,83,kitchen,kitchen,right,True,2026-04-12_13-17-31.225,,,,,,,,,,,,,,,,,,,,,,,,
252,show_green,,0.0,,,,,,,,,,,,,,,,,,,,fl,84,84,green,yellow,left,True,2026-04-12_13-17-40.023,,,,,,,,,,,,,,,,,,,,,,,,
253,show_attention_question,,,,,,,0.0,,,,,,,,,,,,,,,fl,84,84,green,yellow,left,True,2026-04-12_13-17-40.023,,,,,,,,,,,,,,,,,,,,,,,,
254,answer_attention_question,,,,,,,,0.0,,,,,,,,,,,,,,fl,84,84,green,yellow,left,True,2026-04-12_13-17-40.023,,,,,,,,,,,,,,,,,,,,,,,,
255,show_bathroom,,,,,0.0,,,,,,,,,,,,,,,,,fl,85,85,bathroom,kitchen,left,True,2026-04-12_13-17-49.088,,,,,,,,,,,,,,,,,,,,,,,,
256,show_attention_question,,,,,,,0.0,,,,,,,,,,,,,,,fl,85,85,bathroom,kitchen,left,True,2026-04-12_13-17-49.088,,,,,,,,,,,,,,,,,,,,,,,,
257,answer_attention_question,,,,,,,,0.0,,,,,,,,,,,,,,fl,85,85,bathroom,kitchen,left,True,2026-04-12_13-17-49.088,,,,,,,,,,,,,,,,,,,,,,,,
258,show_yellow,,,0.0,,,,,,,,,,,,,,,,,,,fl,86,86,yellow,red,left,True,2026-04-12_13-17-57.980,,,,,,,,,,,,,,,,,,,,,,,,
259,show_attention_question,,,,,,,0.0,,,,,,,,,,,,,,,fl,86,86,yellow,red,left,True,2026-04-12_13-17-57.980,,,,,,,,,,,,,,,,,,,,,,,,
260,answer_attention_question,,,,,,,,0.0,,,,,,,,,,,,,,fl,86,86,yellow,red,left,True,2026-04-12_13-17-57.980,,,,,,,,,,,,,,,,,,,,,,,,
261,show_green,,0.0,,,,,,,,,,,,,,,,,,,,fl,87,87,green,green,right,True,2026-04-12_13-18-07.095,,,,,,,,,,,,,,,,,,,,,,,,
262,show_attention_question,,,,,,,0.0,,,,,,,,,,,,,,,fl,87,87,green,green,right,True,2026-04-12_13-18-07.095,,,,,,,,,,,,,,,,,,,,,,,,
263,answer_attention_question,,,,,,,,0.0,,,,,,,,,,,,,,fl,87,87,green,green,right,True,2026-04-12_13-18-07.095,,,,,,,,,,,,,,,,,,,,,,,,
264,show_yellow,,,0.0,,,,,,,,,,,,,,,,,,,fl,88,88,yellow,red,left,True,2026-04-12_13-18-16.357,,,,,,,,,,,,,,,,,,,,,,,,
265,show_attention_question,,,,,,,0.0,,,,,,,,,,,,,,,fl,88,88,yellow,red,left,True,2026-04-12_13-18-16.357,,,,,,,,,,,,,,,,,,,,,,,,
266,answer_attention_question,,,,,,,,0.0,,,,,,,,,,,,,,fl,88,88,yellow,red,left,True,2026-04-12_13-18-16.357,,,,,,,,,,,,,,,,,,,,,,,,
267,show_bathroom,,,,,0.0,,,,,,,,,,,,,,,,,fl,89,89,bathroom,bathroom,right,True,2026-04-12_13-18-25.043,,,,,,,,,,,,,,,,,,,,,,,,
268,show_attention_question,,,,,,,0.0,,,,,,,,,,,,,,,fl,89,89,bathroom,bathroom,right,True,2026-04-12_13-18-25.043,,,,,,,,,,,,,,,,,,,,,,,,
269,answer_attention_question,,,,,,,,0.0,,,,,,,,,,,,,,fl,89,89,bathroom,bathroom,right,True,2026-04-12_13-18-25.043,,,,,,,,,,,,,,,,,,,,,,,,
270,show_living_room,,,,0.0,,,,,,,,,,,,,,,,,,fl,90,90,living_room,living_room,right,True,2026-04-12_13-18-33.194,,,,,,,,,,,,,,,,,,,,,,,,
271,show_attention_question,,,,,,,0.0,,,,,,,,,,,,,,,fl,90,90,living_room,living_room,right,True,2026-04-12_13-18-33.194,,,,,,,,,,,,,,,,,,,,,,,,
272,answer_attention_question,,,,,,,,0.0,,,,,,,,,,,,,,fl,90,90,living_room,living_room,right,True,2026-04-12_13-18-33.194,,,,,,,,,,,,,,,,,,,,,,,,
273,show_bathroom,,,,,0.0,,,,,,,,,,,,,,,,,fl,91,91,bathroom,living_room,left,True,2026-04-12_13-18-42.622,,,,,,,,,,,,,,,,,,,,,,,,
274,show_attention_question,,,,,,,0.0,,,,,,,,,,,,,,,fl,91,91,bathroom,living_room,left,True,2026-04-12_13-18-42.622,,,,,,,,,,,,,,,,,,,,,,,,
275,answer_attention_question,,,,,,,,0.0,,,,,,,,,,,,,,fl,91,91,bathroom,living_room,left,True,2026-04-12_13-18-42.622,,,,,,,,,,,,,,,,,,,,,,,,
276,show_kitchen,,,,,,0.0,,,,,,,,,,,,,,,,fl,92,92,kitchen,kitchen,right,True,2026-04-12_13-18-50.866,,,,,,,,,,,,,,,,,,,,,,,,
277,show_attention_question,,,,,,,0.0,,,,,,,,,,,,,,,fl,92,92,kitchen,kitchen,right,True,2026-04-12_13-18-50.866,,,,,,,,,,,,,,,,,,,,,,,,
278,answer_attention_question,,,,,,,,0.0,,,,,,,,,,,,,,fl,92,92,kitchen,kitchen,right,True,2026-04-12_13-18-50.866,,,,,,,,,,,,,,,,,,,,,,,,
279,show_bathroom,,,,,0.0,,,,,,,,,,,,,,,,,fl,93,93,bathroom,kitchen,left,True,2026-04-12_13-18-59.856,,,,,,,,,,,,,,,,,,,,,,,,
280,show_attention_question,,,,,,,0.0,,,,,,,,,,,,,,,fl,93,93,bathroom,kitchen,left,True,2026-04-12_13-18-59.856,,,,,,,,,,,,,,,,,,,,,,,,
281,answer_attention_question,,,,,,,,0.0,,,,,,,,,,,,,,fl,93,93,bathroom,kitchen,left,True,2026-04-12_13-18-59.856,,,,,,,,,,,,,,,,,,,,,,,,
282,show_living_room,,,,0.0,,,,,,,,,,,,,,,,,,fl,94,94,living_room,living_room,right,True,2026-04-12_13-19-09.044,,,,,,,,,,,,,,,,,,,,,,,,
283,show_attention_question,,,,,,,0.0,,,,,,,,,,,,,,,fl,94,94,living_room,living_room,right,True,2026-04-12_13-19-09.044,,,,,,,,,,,,,,,,,,,,,,,,
284,answer_attention_question,,,,,,,,0.0,,,,,,,,,,,,,,fl,94,94,living_room,living_room,right,True,2026-04-12_13-19-09.044,,,,,,,,,,,,,,,,,,,,,,,,
285,show_living_room,,,,0.0,,,,,,,,,,,,,,,,,,fl,95,95,living_room,bathroom,left,True,2026-04-12_13-19-17.065,,,,,,,,,,,,,,,,,,,,,,,,
286,show_attention_question,,,,,,,0.0,,,,,,,,,,,,,,,fl,95,95,living_room,bathroom,left,True,2026-04-12_13-19-17.065,,,,,,,,,,,,,,,,,,,,,,,,
287,answer_attention_question,,,,,,,,0.0,,,,,,,,,,,,,,fl,95,95,living_room,bathroom,left,True,2026-04-12_13-19-17.065,,,,,,,,,,,,,,,,,,,,,,,,
288,show_kitchen,,,,,,0.0,,,,,,,,,,,,,,,,fl,96,96,kitchen,living_room,left,True,2026-04-12_13-19-24.951,,,,,,,,,,,,,,,,,,,,,,,,
289,show_attention_question,,,,,,,0.0,,,,,,,,,,,,,,,fl,96,96,kitchen,living_room,left,True,2026-04-12_13-19-24.951,,,,,,,,,,,,,,,,,,,,,,,,
290,answer_attention_question,,,,,,,,0.0,,,,,,,,,,,,,,fl,96,96,kitchen,living_room,left,True,2026-04-12_13-19-24.951,,,,,,,,,,,,,,,,,,,,,,,,
291,show_yellow,,,0.0,,,,,,,,,,,,,,,,,,,fl,97,97,yellow,green,left,True,2026-04-12_13-19-33.453,,,,,,,,,,,,,,,,,,,,,,,,
292,show_attention_question,,,,,,,0.0,,,,,,,,,,,,,,,fl,97,97,yellow,green,left,True,2026-04-12_13-19-33.453,,,,,,,,,,,,,,,,,,,,,,,,
293,answer_attention_question,,,,,,,,0.0,,,,,,,,,,,,,,fl,97,97,yellow,green,left,True,2026-04-12_13-19-33.453,,,,,,,,,,,,,,,,,,,,,,,,
294,show_kitchen,,,,,,0.0,,,,,,,,,,,,,,,,fl,98,98,kitchen,bathroom,left,True,2026-04-12_13-19-42.166,,,,,,,,,,,,,,,,,,,,,,,,
295,show_attention_question,,,,,,,0.0,,,,,,,,,,,,,,,fl,98,98,kitchen,bathroom,left,True,2026-04-12_13-19-42.166,,,,,,,,,,,,,,,,,,,,,,,,
296,answer_attention_question,,,,,,,,0.0,,,,,,,,,,,,,,fl,98,98,kitchen,bathroom,left,True,2026-04-12_13-19-42.166,,,,,,,,,,,,,,,,,,,,,,,,
297,show_kitchen,,,,,,0.0,,,,,,,,,,,,,,,,fl,99,99,kitchen,bathroom,left,True,2026-04-12_13-19-50.495,,,,,,,,,,,,,,,,,,,,,,,,
298,show_attention_question,,,,,,,0.0,,,,,,,,,,,,,,,fl,99,99,kitchen,bathroom,left,True,2026-04-12_13-19-50.495,,,,,,,,,,,,,,,,,,,,,,,,
299,answer_attention_question,,,,,,,,0.0,,,,,,,,,,,,,,fl,99,99,kitchen,bathroom,left,True,2026-04-12_13-19-50.495,,,,,,,,,,,,,,,,,,,,,,,,
300,show_yellow,,,0.0,,,,,,,,,,,,,,,,,,,fl,100,100,yellow,red,left,True,2026-04-12_13-20-21.758,,,,,,,,,,,,,,,,,,,,,,,,
301,show_attention_question,,,,,,,0.0,,,,,,,,,,,,,,,fl,100,100,yellow,red,left,True,2026-04-12_13-20-21.758,,,,,,,,,,,,,,,,,,,,,,,,
302,answer_attention_question,,,,,,,,0.0,,,,,,,,,,,,,,fl,100,100,yellow,red,left,True,2026-04-12_13-20-21.758,,,,,,,,,,,,,,,,,,,,,,,,
303,show_red,0.0,,,,,,,,,,,,,,,,,,,,,fl,101,101,red,green,left,True,2026-04-12_13-20-30.048,,,,,,,,,,,,,,,,,,,,,,,,
304,show_attention_question,,,,,,,0.0,,,,,,,,,,,,,,,fl,101,101,red,green,left,True,2026-04-12_13-20-30.048,,,,,,,,,,,,,,,,,,,,,,,,
305,answer_attention_question,,,,,,,,0.0,,,,,,,,,,,,,,fl,101,101,red,green,left,True,2026-04-12_13-20-30.048,,,,,,,,,,,,,,,,,,,,,,,,
306,show_green,,0.0,,,,,,,,,,,,,,,,,,,,fl,102,102,green,yellow,left,True,2026-04-12_13-20-38.217,,,,,,,,,,,,,,,,,,,,,,,,
307,show_attention_question,,,,,,,0.0,,,,,,,,,,,,,,,fl,102,102,green,yellow,left,True,2026-04-12_13-20-38.217,,,,,,,,,,,,,,,,,,,,,,,,
308,answer_attention_question,,,,,,,,0.0,,,,,,,,,,,,,,fl,102,102,green,yellow,left,True,2026-04-12_13-20-38.217,,,,,,,,,,,,,,,,,,,,,,,,
309,show_red,0.0,,,,,,,,,,,,,,,,,,,,,fl,103,103,red,yellow,left,True,2026-04-12_13-20-46.332,,,,,,,,,,,,,,,,,,,,,,,,
310,show_attention_question,,,,,,,0.0,,,,,,,,,,,,,,,fl,103,103,red,yellow,left,True,2026-04-12_13-20-46.332,,,,,,,,,,,,,,,,,,,,,,,,
311,answer_attention_question,,,,,,,,0.0,,,,,,,,,,,,,,fl,103,103,red,yellow,left,True,2026-04-12_13-20-46.332,,,,,,,,,,,,,,,,,,,,,,,,
312,show_yellow,,,0.0,,,,,,,,,,,,,,,,,,,fl,104,104,yellow,yellow,right,True,2026-04-12_13-20-54.700,,,,,,,,,,,,,,,,,,,,,,,,
313,show_attention_question,,,,,,,0.0,,,,,,,,,,,,,,,fl,104,104,yellow,yellow,right,True,2026-04-12_13-20-54.700,,,,,,,,,,,,,,,,,,,,,,,,
314,answer_attention_question,,,,,,,,0.0,,,,,,,,,,,,,,fl,104,104,yellow,yellow,right,True,2026-04-12_13-20-54.700,,,,,,,,,,,,,,,,,,,,,,,,
315,show_green,,0.0,,,,,,,,,,,,,,,,,,,,fl,105,105,green,red,left,True,2026-04-12_13-21-03.703,,,,,,,,,,,,,,,,,,,,,,,,
316,show_attention_question,,,,,,,0.0,,,,,,,,,,,,,,,fl,105,105,green,red,left,True,2026-04-12_13-21-03.703,,,,,,,,,,,,,,,,,,,,,,,,
317,answer_attention_question,,,,,,,,0.0,,,,,,,,,,,,,,fl,105,105,green,red,left,True,2026-04-12_13-21-03.703,,,,,,,,,,,,,,,,,,,,,,,,
318,show_yellow,,,0.0,,,,,,,,,,,,,,,,,,,fl,106,106,yellow,yellow,right,True,2026-04-12_13-21-12.320,,,,,,,,,,,,,,,,,,,,,,,,
319,show_attention_question,,,,,,,0.0,,,,,,,,,,,,,,,fl,106,106,yellow,yellow,right,True,2026-04-12_13-21-12.320,,,,,,,,,,,,,,,,,,,,,,,,
320,answer_attention_question,,,,,,,,0.0,,,,,,,,,,,,,,fl,106,106,yellow,yellow,right,True,2026-04-12_13-21-12.320,,,,,,,,,,,,,,,,,,,,,,,,
321,show_yellow,,,0.0,,,,,,,,,,,,,,,,,,,fl,107,107,yellow,yellow,right,True,2026-04-12_13-21-20.146,,,,,,,,,,,,,,,,,,,,,,,,
322,show_attention_question,,,,,,,0.0,,,,,,,,,,,,,,,fl,107,107,yellow,yellow,right,True,2026-04-12_13-21-20.146,,,,,,,,,,,,,,,,,,,,,,,,
323,answer_attention_question,,,,,,,,0.0,,,,,,,,,,,,,,fl,107,107,yellow,yellow,right,True,2026-04-12_13-21-20.146,,,,,,,,,,,,,,,,,,,,,,,,
324,show_bathroom,,,,,0.0,,,,,,,,,,,,,,,,,fl,108,108,bathroom,bathroom,right,True,2026-04-12_13-21-28.196,,,,,,,,,,,,,,,,,,,,,,,,
325,show_attention_question,,,,,,,0.0,,,,,,,,,,,,,,,fl,108,108,bathroom,bathroom,right,True,2026-04-12_13-21-28.196,,,,,,,,,,,,,,,,,,,,,,,,
326,answer_attention_question,,,,,,,,0.0,,,,,,,,,,,,,,fl,108,108,bathroom,bathroom,right,True,2026-04-12_13-21-28.196,,,,,,,,,,,,,,,,,,,,,,,,
327,show_yellow,,,0.0,,,,,,,,,,,,,,,,,,,fl,109,109,yellow,green,left,True,2026-04-12_13-21-37.482,,,,,,,,,,,,,,,,,,,,,,,,
328,show_attention_question,,,,,,,0.0,,,,,,,,,,,,,,,fl,109,109,yellow,green,left,True,2026-04-12_13-21-37.482,,,,,,,,,,,,,,,,,,,,,,,,
329,answer_attention_question,,,,,,,,0.0,,,,,,,,,,,,,,fl,109,109,yellow,green,left,True,2026-04-12_13-21-37.482,,,,,,,,,,,,,,,,,,,,,,,,
330,show_red,0.0,,,,,,,,,,,,,,,,,,,,,fl,110,110,red,red,right,True,2026-04-12_13-21-44.955,,,,,,,,,,,,,,,,,,,,,,,,
331,show_attention_question,,,,,,,0.0,,,,,,,,,,,,,,,fl,110,110,red,red,right,True,2026-04-12_13-21-44.955,,,,,,,,,,,,,,,,,,,,,,,,
332,answer_attention_question,,,,,,,,0.0,,,,,,,,,,,,,,fl,110,110,red,red,right,True,2026-04-12_13-21-44.955,,,,,,,,,,,,,,,,,,,,,,,,
333,show_red,0.0,,,,,,,,,,,,,,,,,,,,,fl,111,111,red,yellow,left,True,2026-04-12_13-21-52.372,,,,,,,,,,,,,,,,,,,,,,,,
334,show_attention_question,,,,,,,0.0,,,,,,,,,,,,,,,fl,111,111,red,yellow,left,True,2026-04-12_13-21-52.372,,,,,,,,,,,,,,,,,,,,,,,,
335,answer_attention_question,,,,,,,,0.0,,,,,,,,,,,,,,fl,111,111,red,yellow,left,True,2026-04-12_13-21-52.372,,,,,,,,,,,,,,,,,,,,,,,,
336,show_yellow,,,0.0,,,,,,,,,,,,,,,,,,,fl,112,112,yellow,yellow,right,True,2026-04-12_13-22-00.875,,,,,,,,,,,,,,,,,,,,,,,,
337,show_attention_question,,,,,,,0.0,,,,,,,,,,,,,,,fl,112,112,yellow,yellow,right,True,2026-04-12_13-22-00.875,,,,,,,,,,,,,,,,,,,,,,,,
338,answer_attention_question,,,,,,,,0.0,,,,,,,,,,,,,,fl,112,112,yellow,yellow,right,True,2026-04-12_13-22-00.875,,,,,,,,,,,,,,,,,,,,,,,,
339,show_living_room,,,,0.0,,,,,,,,,,,,,,,,,,fl,113,113,living_room,living_room,right,True,2026-04-12_13-22-08.757,,,,,,,,,,,,,,,,,,,,,,,,
340,show_attention_question,,,,,,,0.0,,,,,,,,,,,,,,,fl,113,113,living_room,living_room,right,True,2026-04-12_13-22-08.757,,,,,,,,,,,,,,,,,,,,,,,,
341,answer_attention_question,,,,,,,,0.0,,,,,,,,,,,,,,fl,113,113,living_room,living_room,right,True,2026-04-12_13-22-08.757,,,,,,,,,,,,,,,,,,,,,,,,
342,show_bathroom,,,,,0.0,,,,,,,,,,,,,,,,,fl,114,114,bathroom,living_room,left,True,2026-04-12_13-22-17.440,,,,,,,,,,,,,,,,,,,,,,,,
343,show_attention_question,,,,,,,0.0,,,,,,,,,,,,,,,fl,114,114,bathroom,living_room,left,True,2026-04-12_13-22-17.440,,,,,,,,,,,,,,,,,,,,,,,,
344,answer_attention_question,,,,,,,,0.0,,,,,,,,,,,,,,fl,114,114,bathroom,living_room,left,True,2026-04-12_13-22-17.440,,,,,,,,,,,,,,,,,,,,,,,,
345,show_red,0.0,,,,,,,,,,,,,,,,,,,,,fl,115,115,red,green,left,True,2026-04-12_13-22-27.567,,,,,,,,,,,,,,,,,,,,,,,,
346,show_attention_question,,,,,,,0.0,,,,,,,,,,,,,,,fl,115,115,red,green,left,True,2026-04-12_13-22-27.567,,,,,,,,,,,,,,,,,,,,,,,,
347,answer_attention_question,,,,,,,,0.0,,,,,,,,,,,,,,fl,115,115,red,green,left,True,2026-04-12_13-22-27.567,,,,,,,,,,,,,,,,,,,,,,,,
348,show_red,0.0,,,,,,,,,,,,,,,,,,,,,fl,116,116,red,green,left,True,2026-04-12_13-22-36.381,,,,,,,,,,,,,,,,,,,,,,,,
349,show_attention_question,,,,,,,0.0,,,,,,,,,,,,,,,fl,116,116,red,green,left,True,2026-04-12_13-22-36.381,,,,,,,,,,,,,,,,,,,,,,,,
350,answer_attention_question,,,,,,,,0.0,,,,,,,,,,,,,,fl,116,116,red,green,left,True,2026-04-12_13-22-36.381,,,,,,,,,,,,,,,,,,,,,,,,
351,show_kitchen,,,,,,0.0,,,,,,,,,,,,,,,,fl,117,117,kitchen,kitchen,right,True,2026-04-12_13-22-43.902,,,,,,,,,,,,,,,,,,,,,,,,
352,show_attention_question,,,,,,,0.0,,,,,,,,,,,,,,,fl,117,117,kitchen,kitchen,right,True,2026-04-12_13-22-43.902,,,,,,,,,,,,,,,,,,,,,,,,
353,answer_attention_question,,,,,,,,0.0,,,,,,,,,,,,,,fl,117,117,kitchen,kitchen,right,True,2026-04-12_13-22-43.902,,,,,,,,,,,,,,,,,,,,,,,,
354,show_kitchen,,,,,,0.0,,,,,,,,,,,,,,,,fl,118,118,kitchen,kitchen,right,True,2026-04-12_13-22-53.034,,,,,,,,,,,,,,,,,,,,,,,,
355,show_attention_question,,,,,,,0.0,,,,,,,,,,,,,,,fl,118,118,kitchen,kitchen,right,True,2026-04-12_13-22-53.034,,,,,,,,,,,,,,,,,,,,,,,,
356,answer_attention_question,,,,,,,,0.0,,,,,,,,,,,,,,fl,118,118,kitchen,kitchen,right,True,2026-04-12_13-22-53.034,,,,,,,,,,,,,,,,,,,,,,,,
357,show_living_room,,,,0.0,,,,,,,,,,,,,,,,,,fl,119,119,living_room,kitchen,left,True,2026-04-12_13-23-01.680,,,,,,,,,,,,,,,,,,,,,,,,
358,show_attention_question,,,,,,,0.0,,,,,,,,,,,,,,,fl,119,119,living_room,kitchen,left,True,2026-04-12_13-23-01.680,,,,,,,,,,,,,,,,,,,,,,,,
359,answer_attention_question,,,,,,,,0.0,,,,,,,,,,,,,,fl,119,119,living_room,kitchen,left,True,2026-04-12_13-23-01.680,,,,,,,,,,,,,,,,,,,,,,,,
360,show_red,0.0,,,,,,,,,,,,,,,,,,,,,fl,120,120,red,red,right,True,2026-04-12_13-23-09.897,,,,,,,,,,,,,,,,,,,,,,,,
361,show_attention_question,,,,,,,0.0,,,,,,,,,,,,,,,fl,120,120,red,red,right,True,2026-04-12_13-23-09.897,,,,,,,,,,,,,,,,,,,,,,,,
362,answer_attention_question,,,,,,,,0.0,,,,,,,,,,,,,,fl,120,120,red,red,right,True,2026-04-12_13-23-09.897,,,,,,,,,,,,,,,,,,,,,,,,
363,show_yellow,,,0.0,,,,,,,,,,,,,,,,,,,fl,121,121,yellow,yellow,right,True,2026-04-12_13-23-19.385,,,,,,,,,,,,,,,,,,,,,,,,
364,show_attention_question,,,,,,,0.0,,,,,,,,,,,,,,,fl,121,121,yellow,yellow,right,True,2026-04-12_13-23-19.385,,,,,,,,,,,,,,,,,,,,,,,,
365,answer_attention_question,,,,,,,,0.0,,,,,,,,,,,,,,fl,121,121,yellow,yellow,right,True,2026-04-12_13-23-19.385,,,,,,,,,,,,,,,,,,,,,,,,
366,show_living_room,,,,0.0,,,,,,,,,,,,,,,,,,fl,122,122,living_room,bathroom,left,True,2026-04-12_13-23-28.602,,,,,,,,,,,,,,,,,,,,,,,,
367,show_attention_question,,,,,,,0.0,,,,,,,,,,,,,,,fl,122,122,living_room,bathroom,left,True,2026-04-12_13-23-28.602,,,,,,,,,,,,,,,,,,,,,,,,
368,answer_attention_question,,,,,,,,0.0,,,,,,,,,,,,,,fl,122,122,living_room,bathroom,left,True,2026-04-12_13-23-28.602,,,,,,,,,,,,,,,,,,,,,,,,
369,show_living_room,,,,0.0,,,,,,,,,,,,,,,,,,fl,123,123,living_room,kitchen,left,True,2026-04-12_13-23-36.964,,,,,,,,,,,,,,,,,,,,,,,,
370,show_attention_question,,,,,,,0.0,,,,,,,,,,,,,,,fl,123,123,living_room,kitchen,left,True,2026-04-12_13-23-36.964,,,,,,,,,,,,,,,,,,,,,,,,
371,answer_attention_question,,,,,,,,0.0,,,,,,,,,,,,,,fl,123,123,living_room,kitchen,left,True,2026-04-12_13-23-36.964,,,,,,,,,,,,,,,,,,,,,,,,
372,show_yellow,,,0.0,,,,,,,,,,,,,,,,,,,fl,124,124,yellow,red,left,True,2026-04-12_13-23-44.992,,,,,,,,,,,,,,,,,,,,,,,,
373,show_attention_question,,,,,,,0.0,,,,,,,,,,,,,,,fl,124,124,yellow,red,left,True,2026-04-12_13-23-44.992,,,,,,,,,,,,,,,,,,,,,,,,
374,answer_attention_question,,,,,,,,0.0,,,,,,,,,,,,,,fl,124,124,yellow,red,left,True,2026-04-12_13-23-44.992,,,,,,,,,,,,,,,,,,,,,,,,
375,show_red,0.0,,,,,,,,,,,,,,,,,,,,,fl,125,125,red,red,right,True,2026-04-12_13-23-53.640,,,,,,,,,,,,,,,,,,,,,,,,
376,show_attention_question,,,,,,,0.0,,,,,,,,,,,,,,,fl,125,125,red,red,right,True,2026-04-12_13-23-53.640,,,,,,,,,,,,,,,,,,,,,,,,
377,answer_attention_question,,,,,,,,0.0,,,,,,,,,,,,,,fl,125,125,red,red,right,True,2026-04-12_13-23-53.640,,,,,,,,,,,,,,,,,,,,,,,,
378,show_red,0.0,,,,,,,,,,,,,,,,,,,,,fl,126,126,red,yellow,left,True,2026-04-12_13-24-01.344,,,,,,,,,,,,,,,,,,,,,,,,
379,show_attention_question,,,,,,,0.0,,,,,,,,,,,,,,,fl,126,126,red,yellow,left,True,2026-04-12_13-24-01.344,,,,,,,,,,,,,,,,,,,,,,,,
380,answer_attention_question,,,,,,,,0.0,,,,,,,,,,,,,,fl,126,126,red,yellow,left,True,2026-04-12_13-24-01.344,,,,,,,,,,,,,,,,,,,,,,,,
381,show_green,,0.0,,,,,,,,,,,,,,,,,,,,fl,127,127,green,yellow,left,True,2026-04-12_13-24-09.739,,,,,,,,,,,,,,,,,,,,,,,,
382,show_attention_question,,,,,,,0.0,,,,,,,,,,,,,,,fl,127,127,green,yellow,left,True,2026-04-12_13-24-09.739,,,,,,,,,,,,,,,,,,,,,,,,
383,answer_attention_question,,,,,,,,0.0,,,,,,,,,,,,,,fl,127,127,green,yellow,left,True,2026-04-12_13-24-09.739,,,,,,,,,,,,,,,,,,,,,,,,
384,show_kitchen,,,,,,0.0,,,,,,,,,,,,,,,,fl,128,128,kitchen,bathroom,left,True,2026-04-12_13-24-17.872,,,,,,,,,,,,,,,,,,,,,,,,
385,show_attention_question,,,,,,,0.0,,,,,,,,,,,,,,,fl,128,128,kitchen,bathroom,left,True,2026-04-12_13-24-17.872,,,,,,,,,,,,,,,,,,,,,,,,
386,answer_attention_question,,,,,,,,0.0,,,,,,,,,,,,,,fl,128,128,kitchen,bathroom,left,True,2026-04-12_13-24-17.872,,,,,,,,,,,,,,,,,,,,,,,,
387,show_green,,0.0,,,,,,,,,,,,,,,,,,,,fl,129,129,green,yellow,left,True,2026-04-12_13-24-27.087,,,,,,,,,,,,,,,,,,,,,,,,
388,show_attention_question,,,,,,,0.0,,,,,,,,,,,,,,,fl,129,129,green,yellow,left,True,2026-04-12_13-24-27.087,,,,,,,,,,,,,,,,,,,,,,,,
389,answer_attention_question,,,,,,,,0.0,,,,,,,,,,,,,,fl,129,129,green,yellow,left,True,2026-04-12_13-24-27.087,,,,,,,,,,,,,,,,,,,,,,,,
390,show_living_room,,,,0.0,,,,,,,,,,,,,,,,,,fl,130,130,living_room,kitchen,left,True,2026-04-12_13-24-35.662,,,,,,,,,,,,,,,,,,,,,,,,
391,show_attention_question,,,,,,,0.0,,,,,,,,,,,,,,,fl,130,130,living_room,kitchen,left,True,2026-04-12_13-24-35.662,,,,,,,,,,,,,,,,,,,,,,,,
392,answer_attention_question,,,,,,,,0.0,,,,,,,,,,,,,,fl,130,130,living_room,kitchen,left,True,2026-04-12_13-24-35.662,,,,,,,,,,,,,,,,,,,,,,,,
393,show_living_room,,,,0.0,,,,,,,,,,,,,,,,,,fl,131,131,living_room,living_room,right,True,2026-04-12_13-24-43.940,,,,,,,,,,,,,,,,,,,,,,,,
394,show_attention_question,,,,,,,0.0,,,,,,,,,,,,,,,fl,131,131,living_room,living_room,right,True,2026-04-12_13-24-43.940,,,,,,,,,,,,,,,,,,,,,,,,
395,answer_attention_question,,,,,,,,0.0,,,,,,,,,,,,,,fl,131,131,living_room,living_room,right,True,2026-04-12_13-24-43.940,,,,,,,,,,,,,,,,,,,,,,,,
396,show_yellow,,,0.0,,,,,,,,,,,,,,,,,,,fl,132,132,yellow,yellow,right,True,2026-04-12_13-24-52.031,,,,,,,,,,,,,,,,,,,,,,,,
397,show_attention_question,,,,,,,0.0,,,,,,,,,,,,,,,fl,132,132,yellow,yellow,right,True,2026-04-12_13-24-52.031,,,,,,,,,,,,,,,,,,,,,,,,
398,answer_attention_question,,,,,,,,0.0,,,,,,,,,,,,,,fl,132,132,yellow,yellow,right,True,2026-04-12_13-24-52.031,,,,,,,,,,,,,,,,,,,,,,,,
399,show_red,0.0,,,,,,,,,,,,,,,,,,,,,fl,133,133,red,yellow,left,True,2026-04-12_13-24-59.850,,,,,,,,,,,,,,,,,,,,,,,,
400,show_attention_question,,,,,,,0.0,,,,,,,,,,,,,,,fl,133,133,red,yellow,left,True,2026-04-12_13-24-59.850,,,,,,,,,,,,,,,,,,,,,,,,
401,answer_attention_question,,,,,,,,0.0,,,,,,,,,,,,,,fl,133,133,red,yellow,left,True,2026-04-12_13-24-59.850,,,,,,,,,,,,,,,,,,,,,,,,
402,show_yellow,,,0.0,,,,,,,,,,,,,,,,,,,fl,134,134,yellow,red,left,True,2026-04-12_13-25-09.237,,,,,,,,,,,,,,,,,,,,,,,,
403,show_attention_question,,,,,,,0.0,,,,,,,,,,,,,,,fl,134,134,yellow,red,left,True,2026-04-12_13-25-09.237,,,,,,,,,,,,,,,,,,,,,,,,
404,answer_attention_question,,,,,,,,0.0,,,,,,,,,,,,,,fl,134,134,yellow,red,left,True,2026-04-12_13-25-09.237,,,,,,,,,,,,,,,,,,,,,,,,
405,show_yellow,,,0.0,,,,,,,,,,,,,,,,,,,fl,135,135,yellow,red,left,True,2026-04-12_13-25-17.777,,,,,,,,,,,,,,,,,,,,,,,,
406,show_attention_question,,,,,,,0.0,,,,,,,,,,,,,,,fl,135,135,yellow,red,left,True,2026-04-12_13-25-17.777,,,,,,,,,,,,,,,,,,,,,,,,
407,answer_attention_question,,,,,,,,0.0,,,,,,,,,,,,,,fl,135,135,yellow,red,left,True,2026-04-12_13-25-17.777,,,,,,,,,,,,,,,,,,,,,,,,
408,show_green,,0.0,,,,,,,,,,,,,,,,,,,,fl,136,136,green,green,right,True,2026-04-12_13-25-27.237,,,,,,,,,,,,,,,,,,,,,,,,
409,show_attention_question,,,,,,,0.0,,,,,,,,,,,,,,,fl,136,136,green,green,right,True,2026-04-12_13-25-27.237,,,,,,,,,,,,,,,,,,,,,,,,
410,answer_attention_question,,,,,,,,0.0,,,,,,,,,,,,,,fl,136,136,green,green,right,True,2026-04-12_13-25-27.237,,,,,,,,,,,,,,,,,,,,,,,,
411,show_red,0.0,,,,,,,,,,,,,,,,,,,,,fl,137,137,red,red,right,True,2026-04-12_13-25-35.108,,,,,,,,,,,,,,,,,,,,,,,,
412,show_attention_question,,,,,,,0.0,,,,,,,,,,,,,,,fl,137,137,red,red,right,True,2026-04-12_13-25-35.108,,,,,,,,,,,,,,,,,,,,,,,,
413,answer_attention_question,,,,,,,,0.0,,,,,,,,,,,,,,fl,137,137,red,red,right,True,2026-04-12_13-25-35.108,,,,,,,,,,,,,,,,,,,,,,,,
414,show_green,,0.0,,,,,,,,,,,,,,,,,,,,fl,138,138,green,red,left,True,2026-04-12_13-25-43.461,,,,,,,,,,,,,,,,,,,,,,,,
415,show_attention_question,,,,,,,0.0,,,,,,,,,,,,,,,fl,138,138,green,red,left,True,2026-04-12_13-25-43.461,,,,,,,,,,,,,,,,,,,,,,,,
416,answer_attention_question,,,,,,,,0.0,,,,,,,,,,,,,,fl,138,138,green,red,left,True,2026-04-12_13-25-43.461,,,,,,,,,,,,,,,,,,,,,,,,
417,show_green,,0.0,,,,,,,,,,,,,,,,,,,,fl,139,139,green,yellow,left,True,2026-04-12_13-25-51.272,,,,,,,,,,,,,,,,,,,,,,,,
418,show_attention_question,,,,,,,0.0,,,,,,,,,,,,,,,fl,139,139,green,yellow,left,True,2026-04-12_13-25-51.272,,,,,,,,,,,,,,,,,,,,,,,,
419,answer_attention_question,,,,,,,,0.0,,,,,,,,,,,,,,fl,139,139,green,yellow,left,True,2026-04-12_13-25-51.272,,,,,,,,,,,,,,,,,,,,,,,,
420,show_living_room,,,,0.0,,,,,,,,,,,,,,,,,,fl,140,140,living_room,living_room,right,True,2026-04-12_13-25-59.684,,,,,,,,,,,,,,,,,,,,,,,,
421,show_attention_question,,,,,,,0.0,,,,,,,,,,,,,,,fl,140,140,living_room,living_room,right,True,2026-04-12_13-25-59.684,,,,,,,,,,,,,,,,,,,,,,,,
422,answer_attention_question,,,,,,,,0.0,,,,,,,,,,,,,,fl,140,140,living_room,living_room,right,True,2026-04-12_13-25-59.684,,,,,,,,,,,,,,,,,,,,,,,,
423,show_red,0.0,,,,,,,,,,,,,,,,,,,,,fl,141,141,red,green,left,True,2026-04-12_13-26-06.561,,,,,,,,,,,,,,,,,,,,,,,,
424,show_attention_question,,,,,,,0.0,,,,,,,,,,,,,,,fl,141,141,red,green,left,True,2026-04-12_13-26-06.561,,,,,,,,,,,,,,,,,,,,,,,,
425,answer_attention_question,,,,,,,,0.0,,,,,,,,,,,,,,fl,141,141,red,green,left,True,2026-04-12_13-26-06.561,,,,,,,,,,,,,,,,,,,,,,,,
426,show_living_room,,,,0.0,,,,,,,,,,,,,,,,,,fl,142,142,living_room,living_room,right,True,2026-04-12_13-26-16.121,,,,,,,,,,,,,,,,,,,,,,,,
427,show_attention_question,,,,,,,0.0,,,,,,,,,,,,,,,fl,142,142,living_room,living_room,right,True,2026-04-12_13-26-16.121,,,,,,,,,,,,,,,,,,,,,,,,
428,answer_attention_question,,,,,,,,0.0,,,,,,,,,,,,,,fl,142,142,living_room,living_room,right,True,2026-04-12_13-26-16.121,,,,,,,,,,,,,,,,,,,,,,,,
429,show_bathroom,,,,,0.0,,,,,,,,,,,,,,,,,fl,143,143,bathroom,living_room,left,True,2026-04-12_13-26-24.718,,,,,,,,,,,,,,,,,,,,,,,,
430,show_attention_question,,,,,,,0.0,,,,,,,,,,,,,,,fl,143,143,bathroom,living_room,left,True,2026-04-12_13-26-24.718,,,,,,,,,,,,,,,,,,,,,,,,
431,answer_attention_question,,,,,,,,0.0,,,,,,,,,,,,,,fl,143,143,bathroom,living_room,left,True,2026-04-12_13-26-24.718,,,,,,,,,,,,,,,,,,,,,,,,
432,show_living_room,,,,0.0,,,,,,,,,,,,,,,,,,fl,144,144,living_room,living_room,right,True,2026-04-12_13-26-33.192,,,,,,,,,,,,,,,,,,,,,,,,
433,show_attention_question,,,,,,,0.0,,,,,,,,,,,,,,,fl,144,144,living_room,living_room,right,True,2026-04-12_13-26-33.192,,,,,,,,,,,,,,,,,,,,,,,,
434,answer_attention_question,,,,,,,,0.0,,,,,,,,,,,,,,fl,144,144,living_room,living_room,right,True,2026-04-12_13-26-33.192,,,,,,,,,,,,,,,,,,,,,,,,
435,show_bathroom,,,,,0.0,,,,,,,,,,,,,,,,,fl,145,145,bathroom,kitchen,left,True,2026-04-12_13-26-42.070,,,,,,,,,,,,,,,,,,,,,,,,
436,show_attention_question,,,,,,,0.0,,,,,,,,,,,,,,,fl,145,145,bathroom,kitchen,left,True,2026-04-12_13-26-42.070,,,,,,,,,,,,,,,,,,,,,,,,
437,answer_attention_question,,,,,,,,0.0,,,,,,,,,,,,,,fl,145,145,bathroom,kitchen,left,True,2026-04-12_13-26-42.070,,,,,,,,,,,,,,,,,,,,,,,,
438,show_kitchen,,,,,,0.0,,,,,,,,,,,,,,,,fl,146,146,kitchen,kitchen,right,True,2026-04-12_13-26-50.479,,,,,,,,,,,,,,,,,,,,,,,,
439,show_attention_question,,,,,,,0.0,,,,,,,,,,,,,,,fl,146,146,kitchen,kitchen,right,True,2026-04-12_13-26-50.479,,,,,,,,,,,,,,,,,,,,,,,,
440,answer_attention_question,,,,,,,,0.0,,,,,,,,,,,,,,fl,146,146,kitchen,kitchen,right,True,2026-04-12_13-26-50.479,,,,,,,,,,,,,,,,,,,,,,,,
441,show_bathroom,,,,,0.0,,,,,,,,,,,,,,,,,fl,147,147,bathroom,bathroom,right,True,2026-04-12_13-26-58.889,,,,,,,,,,,,,,,,,,,,,,,,
442,show_attention_question,,,,,,,0.0,,,,,,,,,,,,,,,fl,147,147,bathroom,bathroom,right,True,2026-04-12_13-26-58.889,,,,,,,,,,,,,,,,,,,,,,,,
443,answer_attention_question,,,,,,,,0.0,,,,,,,,,,,,,,fl,147,147,bathroom,bathroom,right,True,2026-04-12_13-26-58.889,,,,,,,,,,,,,,,,,,,,,,,,
444,show_bathroom,,,,,0.0,,,,,,,,,,,,,,,,,fl,148,148,bathroom,living_room,left,True,2026-04-12_13-27-08.475,,,,,,,,,,,,,,,,,,,,,,,,
445,show_attention_question,,,,,,,0.0,,,,,,,,,,,,,,,fl,148,148,bathroom,living_room,left,True,2026-04-12_13-27-08.475,,,,,,,,,,,,,,,,,,,,,,,,
446,answer_attention_question,,,,,,,,0.0,,,,,,,,,,,,,,fl,148,148,bathroom,living_room,left,True,2026-04-12_13-27-08.475,,,,,,,,,,,,,,,,,,,,,,,,
447,show_red,0.0,,,,,,,,,,,,,,,,,,,,,fl,149,149,red,green,left,True,2026-04-12_13-27-17.136,,,,,,,,,,,,,,,,,,,,,,,,
448,show_attention_question,,,,,,,0.0,,,,,,,,,,,,,,,fl,149,149,red,green,left,True,2026-04-12_13-27-17.136,,,,,,,,,,,,,,,,,,,,,,,,
449,answer_attention_question,,,,,,,,0.0,,,,,,,,,,,,,,fl,149,149,red,green,left,True,2026-04-12_13-27-17.136,,,,,,,,,,,,,,,,,,,,,,,,
450,show_red,0.0,,,,,,,,,,,,,,,,,,,,,fl,150,150,red,yellow,left,True,2026-04-12_13-27-55.413,,,,,,,,,,,,,,,,,,,,,,,,
451,show_attention_question,,,,,,,0.0,,,,,,,,,,,,,,,fl,150,150,red,yellow,left,True,2026-04-12_13-27-55.413,,,,,,,,,,,,,,,,,,,,,,,,
452,answer_attention_question,,,,,,,,0.0,,,,,,,,,,,,,,fl,150,150,red,yellow,left,True,2026-04-12_13-27-55.413,,,,,,,,,,,,,,,,,,,,,,,,
453,show_green,,0.0,,,,,,,,,,,,,,,,,,,,fl,151,151,green,yellow,left,True,2026-04-12_13-28-04.222,,,,,,,,,,,,,,,,,,,,,,,,
454,show_attention_question,,,,,,,0.0,,,,,,,,,,,,,,,fl,151,151,green,yellow,left,True,2026-04-12_13-28-04.222,,,,,,,,,,,,,,,,,,,,,,,,
455,answer_attention_question,,,,,,,,0.0,,,,,,,,,,,,,,fl,151,151,green,yellow,left,True,2026-04-12_13-28-04.222,,,,,,,,,,,,,,,,,,,,,,,,
456,show_red,0.0,,,,,,,,,,,,,,,,,,,,,fl,152,152,red,red,right,True,2026-04-12_13-28-11.479,,,,,,,,,,,,,,,,,,,,,,,,
457,show_attention_question,,,,,,,0.0,,,,,,,,,,,,,,,fl,152,152,red,red,right,True,2026-04-12_13-28-11.479,,,,,,,,,,,,,,,,,,,,,,,,
458,answer_attention_question,,,,,,,,0.0,,,,,,,,,,,,,,fl,152,152,red,red,right,True,2026-04-12_13-28-11.479,,,,,,,,,,,,,,,,,,,,,,,,
459,show_living_room,,,,0.0,,,,,,,,,,,,,,,,,,fl,153,153,living_room,living_room,right,True,2026-04-12_13-28-20.136,,,,,,,,,,,,,,,,,,,,,,,,
460,show_attention_question,,,,,,,0.0,,,,,,,,,,,,,,,fl,153,153,living_room,living_room,right,True,2026-04-12_13-28-20.136,,,,,,,,,,,,,,,,,,,,,,,,
461,answer_attention_question,,,,,,,,0.0,,,,,,,,,,,,,,fl,153,153,living_room,living_room,right,True,2026-04-12_13-28-20.136,,,,,,,,,,,,,,,,,,,,,,,,
462,show_yellow,,,0.0,,,,,,,,,,,,,,,,,,,fl,154,154,yellow,yellow,right,True,2026-04-12_13-28-28.063,,,,,,,,,,,,,,,,,,,,,,,,
463,show_attention_question,,,,,,,0.0,,,,,,,,,,,,,,,fl,154,154,yellow,yellow,right,True,2026-04-12_13-28-28.063,,,,,,,,,,,,,,,,,,,,,,,,
464,answer_attention_question,,,,,,,,0.0,,,,,,,,,,,,,,fl,154,154,yellow,yellow,right,True,2026-04-12_13-28-28.063,,,,,,,,,,,,,,,,,,,,,,,,
465,show_bathroom,,,,,0.0,,,,,,,,,,,,,,,,,fl,155,155,bathroom,living_room,left,True,2026-04-12_13-28-36.014,,,,,,,,,,,,,,,,,,,,,,,,
466,show_attention_question,,,,,,,0.0,,,,,,,,,,,,,,,fl,155,155,bathroom,living_room,left,True,2026-04-12_13-28-36.014,,,,,,,,,,,,,,,,,,,,,,,,
467,answer_attention_question,,,,,,,,0.0,,,,,,,,,,,,,,fl,155,155,bathroom,living_room,left,True,2026-04-12_13-28-36.014,,,,,,,,,,,,,,,,,,,,,,,,
468,show_red,0.0,,,,,,,,,,,,,,,,,,,,,fl,156,156,red,red,right,True,2026-04-12_13-28-44.561,,,,,,,,,,,,,,,,,,,,,,,,
469,show_attention_question,,,,,,,0.0,,,,,,,,,,,,,,,fl,156,156,red,red,right,True,2026-04-12_13-28-44.561,,,,,,,,,,,,,,,,,,,,,,,,
470,answer_attention_question,,,,,,,,0.0,,,,,,,,,,,,,,fl,156,156,red,red,right,True,2026-04-12_13-28-44.561,,,,,,,,,,,,,,,,,,,,,,,,
471,show_bathroom,,,,,0.0,,,,,,,,,,,,,,,,,fl,157,157,bathroom,kitchen,left,True,2026-04-12_13-28-53.303,,,,,,,,,,,,,,,,,,,,,,,,
472,show_attention_question,,,,,,,0.0,,,,,,,,,,,,,,,fl,157,157,bathroom,kitchen,left,True,2026-04-12_13-28-53.303,,,,,,,,,,,,,,,,,,,,,,,,
473,answer_attention_question,,,,,,,,0.0,,,,,,,,,,,,,,fl,157,157,bathroom,kitchen,left,True,2026-04-12_13-28-53.303,,,,,,,,,,,,,,,,,,,,,,,,
474,show_kitchen,,,,,,0.0,,,,,,,,,,,,,,,,fl,158,158,kitchen,bathroom,left,True,2026-04-12_13-29-01.852,,,,,,,,,,,,,,,,,,,,,,,,
475,show_attention_question,,,,,,,0.0,,,,,,,,,,,,,,,fl,158,158,kitchen,bathroom,left,True,2026-04-12_13-29-01.852,,,,,,,,,,,,,,,,,,,,,,,,
476,answer_attention_question,,,,,,,,0.0,,,,,,,,,,,,,,fl,158,158,kitchen,bathroom,left,True,2026-04-12_13-29-01.852,,,,,,,,,,,,,,,,,,,,,,,,
477,show_kitchen,,,,,,0.0,,,,,,,,,,,,,,,,fl,159,159,kitchen,kitchen,right,True,2026-04-12_13-29-09.626,,,,,,,,,,,,,,,,,,,,,,,,
478,show_attention_question,,,,,,,0.0,,,,,,,,,,,,,,,fl,159,159,kitchen,kitchen,right,True,2026-04-12_13-29-09.626,,,,,,,,,,,,,,,,,,,,,,,,
479,answer_attention_question,,,,,,,,0.0,,,,,,,,,,,,,,fl,159,159,kitchen,kitchen,right,True,2026-04-12_13-29-09.626,,,,,,,,,,,,,,,,,,,,,,,,
480,show_yellow,,,0.0,,,,,,,,,,,,,,,,,,,fl,160,160,yellow,green,left,True,2026-04-12_13-29-17.497,,,,,,,,,,,,,,,,,,,,,,,,
481,show_attention_question,,,,,,,0.0,,,,,,,,,,,,,,,fl,160,160,yellow,green,left,True,2026-04-12_13-29-17.497,,,,,,,,,,,,,,,,,,,,,,,,
482,answer_attention_question,,,,,,,,0.0,,,,,,,,,,,,,,fl,160,160,yellow,green,left,True,2026-04-12_13-29-17.497,,,,,,,,,,,,,,,,,,,,,,,,
483,show_bathroom,,,,,0.0,,,,,,,,,,,,,,,,,fl,161,161,bathroom,bathroom,right,True,2026-04-12_13-29-25.215,,,,,,,,,,,,,,,,,,,,,,,,
484,show_attention_question,,,,,,,0.0,,,,,,,,,,,,,,,fl,161,161,bathroom,bathroom,right,True,2026-04-12_13-29-25.215,,,,,,,,,,,,,,,,,,,,,,,,
485,answer_attention_question,,,,,,,,0.0,,,,,,,,,,,,,,fl,161,161,bathroom,bathroom,right,True,2026-04-12_13-29-25.215,,,,,,,,,,,,,,,,,,,,,,,,
486,show_red,0.0,,,,,,,,,,,,,,,,,,,,,fl,162,162,red,yellow,left,True,2026-04-12_13-29-32.071,,,,,,,,,,,,,,,,,,,,,,,,
487,show_attention_question,,,,,,,0.0,,,,,,,,,,,,,,,fl,162,162,red,yellow,left,True,2026-04-12_13-29-32.071,,,,,,,,,,,,,,,,,,,,,,,,
488,answer_attention_question,,,,,,,,0.0,,,,,,,,,,,,,,fl,162,162,red,yellow,left,True,2026-04-12_13-29-32.071,,,,,,,,,,,,,,,,,,,,,,,,
489,show_living_room,,,,0.0,,,,,,,,,,,,,,,,,,fl,163,163,living_room,living_room,right,True,2026-04-12_13-29-39.906,,,,,,,,,,,,,,,,,,,,,,,,
490,show_attention_question,,,,,,,0.0,,,,,,,,,,,,,,,fl,163,163,living_room,living_room,right,True,2026-04-12_13-29-39.906,,,,,,,,,,,,,,,,,,,,,,,,
491,answer_attention_question,,,,,,,,0.0,,,,,,,,,,,,,,fl,163,163,living_room,living_room,right,True,2026-04-12_13-29-39.906,,,,,,,,,,,,,,,,,,,,,,,,
492,show_red,0.0,,,,,,,,,,,,,,,,,,,,,fl,164,164,red,green,left,True,2026-04-12_13-29-48.471,,,,,,,,,,,,,,,,,,,,,,,,
493,show_attention_question,,,,,,,0.0,,,,,,,,,,,,,,,fl,164,164,red,green,left,True,2026-04-12_13-29-48.471,,,,,,,,,,,,,,,,,,,,,,,,
494,answer_attention_question,,,,,,,,0.0,,,,,,,,,,,,,,fl,164,164,red,green,left,True,2026-04-12_13-29-48.471,,,,,,,,,,,,,,,,,,,,,,,,
495,show_kitchen,,,,,,0.0,,,,,,,,,,,,,,,,fl,165,165,kitchen,living_room,left,True,2026-04-12_13-29-57.542,,,,,,,,,,,,,,,,,,,,,,,,
496,show_attention_question,,,,,,,0.0,,,,,,,,,,,,,,,fl,165,165,kitchen,living_room,left,True,2026-04-12_13-29-57.542,,,,,,,,,,,,,,,,,,,,,,,,
497,answer_attention_question,,,,,,,,0.0,,,,,,,,,,,,,,fl,165,165,kitchen,living_room,left,True,2026-04-12_13-29-57.542,,,,,,,,,,,,,,,,,,,,,,,,
498,show_living_room,,,,0.0,,,,,,,,,,,,,,,,,,fl,166,166,living_room,kitchen,left,True,2026-04-12_13-30-06.381,,,,,,,,,,,,,,,,,,,,,,,,
499,show_attention_question,,,,,,,0.0,,,,,,,,,,,,,,,fl,166,166,living_room,kitchen,left,True,2026-04-12_13-30-06.381,,,,,,,,,,,,,,,,,,,,,,,,
500,answer_attention_question,,,,,,,,0.0,,,,,,,,,,,,,,fl,166,166,living_room,kitchen,left,True,2026-04-12_13-30-06.381,,,,,,,,,,,,,,,,,,,,,,,,
501,show_kitchen,,,,,,0.0,,,,,,,,,,,,,,,,fl,167,167,kitchen,kitchen,right,True,2026-04-12_13-30-15.014,,,,,,,,,,,,,,,,,,,,,,,,
502,show_attention_question,,,,,,,0.0,,,,,,,,,,,,,,,fl,167,167,kitchen,kitchen,right,True,2026-04-12_13-30-15.014,,,,,,,,,,,,,,,,,,,,,,,,
503,answer_attention_question,,,,,,,,0.0,,,,,,,,,,,,,,fl,167,167,kitchen,kitchen,right,True,2026-04-12_13-30-15.014,,,,,,,,,,,,,,,,,,,,,,,,
504,show_green,,0.0,,,,,,,,,,,,,,,,,,,,fl,168,168,green,red,left,True,2026-04-12_13-30-23.670,,,,,,,,,,,,,,,,,,,,,,,,
505,show_attention_question,,,,,,,0.0,,,,,,,,,,,,,,,fl,168,168,green,red,left,True,2026-04-12_13-30-23.670,,,,,,,,,,,,,,,,,,,,,,,,
506,answer_attention_question,,,,,,,,0.0,,,,,,,,,,,,,,fl,168,168,green,red,left,True,2026-04-12_13-30-23.670,,,,,,,,,,,,,,,,,,,,,,,,
507,show_living_room,,,,0.0,,,,,,,,,,,,,,,,,,fl,169,169,living_room,kitchen,left,True,2026-04-12_13-30-32.282,,,,,,,,,,,,,,,,,,,,,,,,
508,show_attention_question,,,,,,,0.0,,,,,,,,,,,,,,,fl,169,169,living_room,kitchen,left,True,2026-04-12_13-30-32.282,,,,,,,,,,,,,,,,,,,,,,,,
509,answer_attention_question,,,,,,,,0.0,,,,,,,,,,,,,,fl,169,169,living_room,kitchen,left,True,2026-04-12_13-30-32.282,,,,,,,,,,,,,,,,,,,,,,,,
510,show_living_room,,,,0.0,,,,,,,,,,,,,,,,,,fl,170,170,living_room,living_room,right,True,2026-04-12_13-30-40.716,,,,,,,,,,,,,,,,,,,,,,,,
511,show_attention_question,,,,,,,0.0,,,,,,,,,,,,,,,fl,170,170,living_room,living_room,right,True,2026-04-12_13-30-40.716,,,,,,,,,,,,,,,,,,,,,,,,
512,answer_attention_question,,,,,,,,0.0,,,,,,,,,,,,,,fl,170,170,living_room,living_room,right,True,2026-04-12_13-30-40.716,,,,,,,,,,,,,,,,,,,,,,,,
513,show_kitchen,,,,,,0.0,,,,,,,,,,,,,,,,fl,171,171,kitchen,kitchen,right,True,2026-04-12_13-30-48.118,,,,,,,,,,,,,,,,,,,,,,,,
514,show_attention_question,,,,,,,0.0,,,,,,,,,,,,,,,fl,171,171,kitchen,kitchen,right,True,2026-04-12_13-30-48.118,,,,,,,,,,,,,,,,,,,,,,,,
515,answer_attention_question,,,,,,,,0.0,,,,,,,,,,,,,,fl,171,171,kitchen,kitchen,right,True,2026-04-12_13-30-48.118,,,,,,,,,,,,,,,,,,,,,,,,
516,show_green,,0.0,,,,,,,,,,,,,,,,,,,,fl,172,172,green,green,right,True,2026-04-12_13-30-58.485,,,,,,,,,,,,,,,,,,,,,,,,
517,show_attention_question,,,,,,,0.0,,,,,,,,,,,,,,,fl,172,172,green,green,right,True,2026-04-12_13-30-58.485,,,,,,,,,,,,,,,,,,,,,,,,
518,answer_attention_question,,,,,,,,0.0,,,,,,,,,,,,,,fl,172,172,green,green,right,True,2026-04-12_13-30-58.485,,,,,,,,,,,,,,,,,,,,,,,,
519,show_red,0.0,,,,,,,,,,,,,,,,,,,,,fl,173,173,red,red,right,True,2026-04-12_13-31-07.362,,,,,,,,,,,,,,,,,,,,,,,,
520,show_attention_question,,,,,,,0.0,,,,,,,,,,,,,,,fl,173,173,red,red,right,True,2026-04-12_13-31-07.362,,,,,,,,,,,,,,,,,,,,,,,,
521,answer_attention_question,,,,,,,,0.0,,,,,,,,,,,,,,fl,173,173,red,red,right,True,2026-04-12_13-31-07.362,,,,,,,,,,,,,,,,,,,,,,,,
522,show_kitchen,,,,,,0.0,,,,,,,,,,,,,,,,fl,174,174,kitchen,kitchen,right,True,2026-04-12_13-31-15.188,,,,,,,,,,,,,,,,,,,,,,,,
523,show_attention_question,,,,,,,0.0,,,,,,,,,,,,,,,fl,174,174,kitchen,kitchen,right,True,2026-04-12_13-31-15.188,,,,,,,,,,,,,,,,,,,,,,,,
524,answer_attention_question,,,,,,,,0.0,,,,,,,,,,,,,,fl,174,174,kitchen,kitchen,right,True,2026-04-12_13-31-15.188,,,,,,,,,,,,,,,,,,,,,,,,
525,show_kitchen,,,,,,0.0,,,,,,,,,,,,,,,,fl,175,175,kitchen,kitchen,right,True,2026-04-12_13-31-22.112,,,,,,,,,,,,,,,,,,,,,,,,
526,show_attention_question,,,,,,,0.0,,,,,,,,,,,,,,,fl,175,175,kitchen,kitchen,right,True,2026-04-12_13-31-22.112,,,,,,,,,,,,,,,,,,,,,,,,
527,answer_attention_question,,,,,,,,0.0,,,,,,,,,,,,,,fl,175,175,kitchen,kitchen,right,True,2026-04-12_13-31-22.112,,,,,,,,,,,,,,,,,,,,,,,,
528,show_green,,0.0,,,,,,,,,,,,,,,,,,,,fl,176,176,green,green,right,True,2026-04-12_13-31-31.022,,,,,,,,,,,,,,,,,,,,,,,,
529,show_attention_question,,,,,,,0.0,,,,,,,,,,,,,,,fl,176,176,green,green,right,True,2026-04-12_13-31-31.022,,,,,,,,,,,,,,,,,,,,,,,,
530,answer_attention_question,,,,,,,,0.0,,,,,,,,,,,,,,fl,176,176,green,green,right,True,2026-04-12_13-31-31.022,,,,,,,,,,,,,,,,,,,,,,,,
531,show_living_room,,,,0.0,,,,,,,,,,,,,,,,,,fl,177,177,living_room,kitchen,left,True,2026-04-12_13-31-40.005,,,,,,,,,,,,,,,,,,,,,,,,
532,show_attention_question,,,,,,,0.0,,,,,,,,,,,,,,,fl,177,177,living_room,kitchen,left,True,2026-04-12_13-31-40.005,,,,,,,,,,,,,,,,,,,,,,,,
533,answer_attention_question,,,,,,,,0.0,,,,,,,,,,,,,,fl,177,177,living_room,kitchen,left,True,2026-04-12_13-31-40.005,,,,,,,,,,,,,,,,,,,,,,,,
534,show_living_room,,,,0.0,,,,,,,,,,,,,,,,,,fl,178,178,living_room,bathroom,left,True,2026-04-12_13-31-47.746,,,,,,,,,,,,,,,,,,,,,,,,
535,show_attention_question,,,,,,,0.0,,,,,,,,,,,,,,,fl,178,178,living_room,bathroom,left,True,2026-04-12_13-31-47.746,,,,,,,,,,,,,,,,,,,,,,,,
536,answer_attention_question,,,,,,,,0.0,,,,,,,,,,,,,,fl,178,178,living_room,bathroom,left,True,2026-04-12_13-31-47.746,,,,,,,,,,,,,,,,,,,,,,,,
537,show_bathroom,,,,,0.0,,,,,,,,,,,,,,,,,fl,179,179,bathroom,bathroom,right,True,2026-04-12_13-31-57.500,,,,,,,,,,,,,,,,,,,,,,,,
538,show_attention_question,,,,,,,0.0,,,,,,,,,,,,,,,fl,179,179,bathroom,bathroom,right,True,2026-04-12_13-31-57.500,,,,,,,,,,,,,,,,,,,,,,,,
539,answer_attention_question,,,,,,,,0.0,,,,,,,,,,,,,,fl,179,179,bathroom,bathroom,right,True,2026-04-12_13-31-57.500,,,,,,,,,,,,,,,,,,,,,,,,
540,show_kitchen,,,,,,0.0,,,,,,,,,,,,,,,,fl,180,180,kitchen,kitchen,right,True,2026-04-12_13-32-06.255,,,,,,,,,,,,,,,,,,,,,,,,
541,show_attention_question,,,,,,,0.0,,,,,,,,,,,,,,,fl,180,180,kitchen,kitchen,right,True,2026-04-12_13-32-06.255,,,,,,,,,,,,,,,,,,,,,,,,
542,answer_attention_question,,,,,,,,0.0,,,,,,,,,,,,,,fl,180,180,kitchen,kitchen,right,True,2026-04-12_13-32-06.255,,,,,,,,,,,,,,,,,,,,,,,,
543,show_living_room,,,,0.0,,,,,,,,,,,,,,,,,,fl,181,181,living_room,kitchen,left,True,2026-04-12_13-32-15.421,,,,,,,,,,,,,,,,,,,,,,,,
544,show_attention_question,,,,,,,0.0,,,,,,,,,,,,,,,fl,181,181,living_room,kitchen,left,True,2026-04-12_13-32-15.421,,,,,,,,,,,,,,,,,,,,,,,,
545,answer_attention_question,,,,,,,,0.0,,,,,,,,,,,,,,fl,181,181,living_room,kitchen,left,True,2026-04-12_13-32-15.421,,,,,,,,,,,,,,,,,,,,,,,,
546,show_green,,0.0,,,,,,,,,,,,,,,,,,,,fl,182,182,green,green,right,True,2026-04-12_13-32-22.679,,,,,,,,,,,,,,,,,,,,,,,,
547,show_attention_question,,,,,,,0.0,,,,,,,,,,,,,,,fl,182,182,green,green,right,True,2026-04-12_13-32-22.679,,,,,,,,,,,,,,,,,,,,,,,,
548,answer_attention_question,,,,,,,,0.0,,,,,,,,,,,,,,fl,182,182,green,green,right,True,2026-04-12_13-32-22.679,,,,,,,,,,,,,,,,,,,,,,,,
549,show_green,,0.0,,,,,,,,,,,,,,,,,,,,fl,183,183,green,green,right,True,2026-04-12_13-32-31.781,,,,,,,,,,,,,,,,,,,,,,,,
550,show_attention_question,,,,,,,0.0,,,,,,,,,,,,,,,fl,183,183,green,green,right,True,2026-04-12_13-32-31.781,,,,,,,,,,,,,,,,,,,,,,,,
551,answer_attention_question,,,,,,,,0.0,,,,,,,,,,,,,,fl,183,183,green,green,right,True,2026-04-12_13-32-31.781,,,,,,,,,,,,,,,,,,,,,,,,
552,show_kitchen,,,,,,0.0,,,,,,,,,,,,,,,,fl,184,184,kitchen,bathroom,left,True,2026-04-12_13-32-39.911,,,,,,,,,,,,,,,,,,,,,,,,
553,show_attention_question,,,,,,,0.0,,,,,,,,,,,,,,,fl,184,184,kitchen,bathroom,left,True,2026-04-12_13-32-39.911,,,,,,,,,,,,,,,,,,,,,,,,
554,answer_attention_question,,,,,,,,0.0,,,,,,,,,,,,,,fl,184,184,kitchen,bathroom,left,True,2026-04-12_13-32-39.911,,,,,,,,,,,,,,,,,,,,,,,,
555,show_bathroom,,,,,0.0,,,,,,,,,,,,,,,,,fl,185,185,bathroom,living_room,left,True,2026-04-12_13-32-49.254,,,,,,,,,,,,,,,,,,,,,,,,
556,show_attention_question,,,,,,,0.0,,,,,,,,,,,,,,,fl,185,185,bathroom,living_room,left,True,2026-04-12_13-32-49.254,,,,,,,,,,,,,,,,,,,,,,,,
557,answer_attention_question,,,,,,,,0.0,,,,,,,,,,,,,,fl,185,185,bathroom,living_room,left,True,2026-04-12_13-32-49.254,,,,,,,,,,,,,,,,,,,,,,,,
558,show_yellow,,,0.0,,,,,,,,,,,,,,,,,,,fl,186,186,yellow,yellow,right,True,2026-04-12_13-32-56.988,,,,,,,,,,,,,,,,,,,,,,,,
559,show_attention_question,,,,,,,0.0,,,,,,,,,,,,,,,fl,186,186,yellow,yellow,right,True,2026-04-12_13-32-56.988,,,,,,,,,,,,,,,,,,,,,,,,
560,answer_attention_question,,,,,,,,0.0,,,,,,,,,,,,,,fl,186,186,yellow,yellow,right,True,2026-04-12_13-32-56.988,,,,,,,,,,,,,,,,,,,,,,,,
561,show_kitchen,,,,,,0.0,,,,,,,,,,,,,,,,fl,187,187,kitchen,kitchen,right,True,2026-04-12_13-33-05.468,,,,,,,,,,,,,,,,,,,,,,,,
562,show_attention_question,,,,,,,0.0,,,,,,,,,,,,,,,fl,187,187,kitchen,kitchen,right,True,2026-04-12_13-33-05.468,,,,,,,,,,,,,,,,,,,,,,,,
563,answer_attention_question,,,,,,,,0.0,,,,,,,,,,,,,,fl,187,187,kitchen,kitchen,right,True,2026-04-12_13-33-05.468,,,,,,,,,,,,,,,,,,,,,,,,
564,show_yellow,,,0.0,,,,,,,,,,,,,,,,,,,fl,188,188,yellow,yellow,right,True,2026-04-12_13-33-12.924,,,,,,,,,,,,,,,,,,,,,,,,
565,show_attention_question,,,,,,,0.0,,,,,,,,,,,,,,,fl,188,188,yellow,yellow,right,True,2026-04-12_13-33-12.924,,,,,,,,,,,,,,,,,,,,,,,,
566,answer_attention_question,,,,,,,,0.0,,,,,,,,,,,,,,fl,188,188,yellow,yellow,right,True,2026-04-12_13-33-12.924,,,,,,,,,,,,,,,,,,,,,,,,
567,show_yellow,,,0.0,,,,,,,,,,,,,,,,,,,fl,189,189,yellow,green,left,True,2026-04-12_13-33-21.887,,,,,,,,,,,,,,,,,,,,,,,,
568,show_attention_question,,,,,,,0.0,,,,,,,,,,,,,,,fl,189,189,yellow,green,left,True,2026-04-12_13-33-21.887,,,,,,,,,,,,,,,,,,,,,,,,
569,answer_attention_question,,,,,,,,0.0,,,,,,,,,,,,,,fl,189,189,yellow,green,left,True,2026-04-12_13-33-21.887,,,,,,,,,,,,,,,,,,,,,,,,
570,show_living_room,,,,0.0,,,,,,,,,,,,,,,,,,fl,190,190,living_room,kitchen,left,True,2026-04-12_13-33-29.436,,,,,,,,,,,,,,,,,,,,,,,,
571,show_attention_question,,,,,,,0.0,,,,,,,,,,,,,,,fl,190,190,living_room,kitchen,left,True,2026-04-12_13-33-29.436,,,,,,,,,,,,,,,,,,,,,,,,
572,answer_attention_question,,,,,,,,0.0,,,,,,,,,,,,,,fl,190,190,living_room,kitchen,left,True,2026-04-12_13-33-29.436,,,,,,,,,,,,,,,,,,,,,,,,
573,show_green,,0.0,,,,,,,,,,,,,,,,,,,,fl,191,191,green,red,left,True,2026-04-12_13-33-37.773,,,,,,,,,,,,,,,,,,,,,,,,
574,show_attention_question,,,,,,,0.0,,,,,,,,,,,,,,,fl,191,191,green,red,left,True,2026-04-12_13-33-37.773,,,,,,,,,,,,,,,,,,,,,,,,
575,answer_attention_question,,,,,,,,0.0,,,,,,,,,,,,,,fl,191,191,green,red,left,True,2026-04-12_13-33-37.773,,,,,,,,,,,,,,,,,,,,,,,,
576,show_red,0.0,,,,,,,,,,,,,,,,,,,,,fl,192,192,red,red,right,True,2026-04-12_13-33-46.325,,,,,,,,,,,,,,,,,,,,,,,,
577,show_attention_question,,,,,,,0.0,,,,,,,,,,,,,,,fl,192,192,red,red,right,True,2026-04-12_13-33-46.325,,,,,,,,,,,,,,,,,,,,,,,,
578,answer_attention_question,,,,,,,,0.0,,,,,,,,,,,,,,fl,192,192,red,red,right,True,2026-04-12_13-33-46.325,,,,,,,,,,,,,,,,,,,,,,,,
579,show_yellow,,,0.0,,,,,,,,,,,,,,,,,,,fl,193,193,yellow,red,left,True,2026-04-12_13-33-54.752,,,,,,,,,,,,,,,,,,,,,,,,
580,show_attention_question,,,,,,,0.0,,,,,,,,,,,,,,,fl,193,193,yellow,red,left,True,2026-04-12_13-33-54.752,,,,,,,,,,,,,,,,,,,,,,,,
581,answer_attention_question,,,,,,,,0.0,,,,,,,,,,,,,,fl,193,193,yellow,red,left,True,2026-04-12_13-33-54.752,,,,,,,,,,,,,,,,,,,,,,,,
582,show_green,,0.0,,,,,,,,,,,,,,,,,,,,fl,194,194,green,red,left,True,2026-04-12_13-34-03.921,,,,,,,,,,,,,,,,,,,,,,,,
583,show_attention_question,,,,,,,0.0,,,,,,,,,,,,,,,fl,194,194,green,red,left,True,2026-04-12_13-34-03.921,,,,,,,,,,,,,,,,,,,,,,,,
584,answer_attention_question,,,,,,,,0.0,,,,,,,,,,,,,,fl,194,194,green,red,left,True,2026-04-12_13-34-03.921,,,,,,,,,,,,,,,,,,,,,,,,
585,show_red,0.0,,,,,,,,,,,,,,,,,,,,,fl,195,195,red,yellow,left,True,2026-04-12_13-34-11.658,,,,,,,,,,,,,,,,,,,,,,,,
586,show_attention_question,,,,,,,0.0,,,,,,,,,,,,,,,fl,195,195,red,yellow,left,True,2026-04-12_13-34-11.658,,,,,,,,,,,,,,,,,,,,,,,,
587,answer_attention_question,,,,,,,,0.0,,,,,,,,,,,,,,fl,195,195,red,yellow,left,True,2026-04-12_13-34-11.658,,,,,,,,,,,,,,,,,,,,,,,,
588,show_kitchen,,,,,,0.0,,,,,,,,,,,,,,,,fl,196,196,kitchen,kitchen,right,True,2026-04-12_13-34-19.939,,,,,,,,,,,,,,,,,,,,,,,,
589,show_attention_question,,,,,,,0.0,,,,,,,,,,,,,,,fl,196,196,kitchen,kitchen,right,True,2026-04-12_13-34-19.939,,,,,,,,,,,,,,,,,,,,,,,,
590,answer_attention_question,,,,,,,,0.0,,,,,,,,,,,,,,fl,196,196,kitchen,kitchen,right,True,2026-04-12_13-34-19.939,,,,,,,,,,,,,,,,,,,,,,,,
591,show_kitchen,,,,,,0.0,,,,,,,,,,,,,,,,fl,197,197,kitchen,living_room,left,True,2026-04-12_13-34-27.314,,,,,,,,,,,,,,,,,,,,,,,,
592,show_attention_question,,,,,,,0.0,,,,,,,,,,,,,,,fl,197,197,kitchen,living_room,left,True,2026-04-12_13-34-27.314,,,,,,,,,,,,,,,,,,,,,,,,
593,answer_attention_question,,,,,,,,0.0,,,,,,,,,,,,,,fl,197,197,kitchen,living_room,left,True,2026-04-12_13-34-27.314,,,,,,,,,,,,,,,,,,,,,,,,
594,show_red,0.0,,,,,,,,,,,,,,,,,,,,,fl,198,198,red,yellow,left,True,2026-04-12_13-34-36.605,,,,,,,,,,,,,,,,,,,,,,,,
595,show_attention_question,,,,,,,0.0,,,,,,,,,,,,,,,fl,198,198,red,yellow,left,True,2026-04-12_13-34-36.605,,,,,,,,,,,,,,,,,,,,,,,,
596,answer_attention_question,,,,,,,,0.0,,,,,,,,,,,,,,fl,198,198,red,yellow,left,True,2026-04-12_13-34-36.605,,,,,,,,,,,,,,,,,,,,,,,,
597,show_kitchen,,,,,,0.0,,,,,,,,,,,,,,,,fl,199,199,kitchen,bathroom,left,True,2026-04-12_13-34-45.100,,,,,,,,,,,,,,,,,,,,,,,,
598,show_attention_question,,,,,,,0.0,,,,,,,,,,,,,,,fl,199,199,kitchen,bathroom,left,True,2026-04-12_13-34-45.100,,,,,,,,,,,,,,,,,,,,,,,,
599,answer_attention_question,,,,,,,,0.0,,,,,,,,,,,,,,fl,199,199,kitchen,bathroom,left,True,2026-04-12_13-34-45.100,,,,,,,,,,,,,,,,,,,,,,,,
600,show_green,,0.0,,,,,,,,,,,,,,,,,,,,fl,200,200,green,green,right,True,2026-04-12_13-35-27.155,,,,,,,,,,,,,,,,,,,,,,,,
601,show_attention_question,,,,,,,0.0,,,,,,,,,,,,,,,fl,200,200,green,green,right,True,2026-04-12_13-35-27.155,,,,,,,,,,,,,,,,,,,,,,,,
602,answer_attention_question,,,,,,,,0.0,,,,,,,,,,,,,,fl,200,200,green,green,right,True,2026-04-12_13-35-27.155,,,,,,,,,,,,,,,,,,,,,,,,
603,show_yellow,,,0.0,,,,,,,,,,,,,,,,,,,fl,201,201,yellow,yellow,right,True,2026-04-12_13-35-35.587,,,,,,,,,,,,,,,,,,,,,,,,
604,show_attention_question,,,,,,,0.0,,,,,,,,,,,,,,,fl,201,201,yellow,yellow,right,True,2026-04-12_13-35-35.587,,,,,,,,,,,,,,,,,,,,,,,,
605,answer_attention_question,,,,,,,,0.0,,,,,,,,,,,,,,fl,201,201,yellow,yellow,right,True,2026-04-12_13-35-35.587,,,,,,,,,,,,,,,,,,,,,,,,
606,show_kitchen,,,,,,0.0,,,,,,,,,,,,,,,,fl,202,202,kitchen,kitchen,right,True,2026-04-12_13-35-44.184,,,,,,,,,,,,,,,,,,,,,,,,
607,show_attention_question,,,,,,,0.0,,,,,,,,,,,,,,,fl,202,202,kitchen,kitchen,right,True,2026-04-12_13-35-44.184,,,,,,,,,,,,,,,,,,,,,,,,
608,answer_attention_question,,,,,,,,0.0,,,,,,,,,,,,,,fl,202,202,kitchen,kitchen,right,True,2026-04-12_13-35-44.184,,,,,,,,,,,,,,,,,,,,,,,,
609,show_red,0.0,,,,,,,,,,,,,,,,,,,,,fl,203,203,red,red,right,True,2026-04-12_13-35-52.507,,,,,,,,,,,,,,,,,,,,,,,,
610,show_attention_question,,,,,,,0.0,,,,,,,,,,,,,,,fl,203,203,red,red,right,True,2026-04-12_13-35-52.507,,,,,,,,,,,,,,,,,,,,,,,,
611,answer_attention_question,,,,,,,,0.0,,,,,,,,,,,,,,fl,203,203,red,red,right,True,2026-04-12_13-35-52.507,,,,,,,,,,,,,,,,,,,,,,,,
612,show_bathroom,,,,,0.0,,,,,,,,,,,,,,,,,fl,204,204,bathroom,bathroom,right,True,2026-04-12_13-35-59.856,,,,,,,,,,,,,,,,,,,,,,,,
613,show_attention_question,,,,,,,0.0,,,,,,,,,,,,,,,fl,204,204,bathroom,bathroom,right,True,2026-04-12_13-35-59.856,,,,,,,,,,,,,,,,,,,,,,,,
614,answer_attention_question,,,,,,,,0.0,,,,,,,,,,,,,,fl,204,204,bathroom,bathroom,right,True,2026-04-12_13-35-59.856,,,,,,,,,,,,,,,,,,,,,,,,
615,show_yellow,,,0.0,,,,,,,,,,,,,,,,,,,fl,205,205,yellow,green,left,True,2026-04-12_13-36-07.748,,,,,,,,,,,,,,,,,,,,,,,,
616,show_attention_question,,,,,,,0.0,,,,,,,,,,,,,,,fl,205,205,yellow,green,left,True,2026-04-12_13-36-07.748,,,,,,,,,,,,,,,,,,,,,,,,
617,answer_attention_question,,,,,,,,0.0,,,,,,,,,,,,,,fl,205,205,yellow,green,left,True,2026-04-12_13-36-07.748,,,,,,,,,,,,,,,,,,,,,,,,
618,show_red,0.0,,,,,,,,,,,,,,,,,,,,,fl,206,206,red,red,right,True,2026-04-12_13-36-17.486,,,,,,,,,,,,,,,,,,,,,,,,
619,show_attention_question,,,,,,,0.0,,,,,,,,,,,,,,,fl,206,206,red,red,right,True,2026-04-12_13-36-17.486,,,,,,,,,,,,,,,,,,,,,,,,
620,answer_attention_question,,,,,,,,0.0,,,,,,,,,,,,,,fl,206,206,red,red,right,True,2026-04-12_13-36-17.486,,,,,,,,,,,,,,,,,,,,,,,,
621,show_living_room,,,,0.0,,,,,,,,,,,,,,,,,,fl,207,207,living_room,living_room,right,True,2026-04-12_13-36-25.191,,,,,,,,,,,,,,,,,,,,,,,,
622,show_attention_question,,,,,,,0.0,,,,,,,,,,,,,,,fl,207,207,living_room,living_room,right,True,2026-04-12_13-36-25.191,,,,,,,,,,,,,,,,,,,,,,,,
623,answer_attention_question,,,,,,,,0.0,,,,,,,,,,,,,,fl,207,207,living_room,living_room,right,True,2026-04-12_13-36-25.191,,,,,,,,,,,,,,,,,,,,,,,,
624,show_bathroom,,,,,0.0,,,,,,,,,,,,,,,,,fl,208,208,bathroom,kitchen,right,False,2026-04-12_13-36-33.666,,,,,,,,,,,,,,,,,,,,,,,,
625,show_attention_question,,,,,,,0.0,,,,,,,,,,,,,,,fl,208,208,bathroom,kitchen,right,False,2026-04-12_13-36-33.666,,,,,,,,,,,,,,,,,,,,,,,,
626,answer_attention_question,,,,,,,,0.0,,,,,,,,,,,,,,fl,208,208,bathroom,kitchen,right,False,2026-04-12_13-36-33.666,,,,,,,,,,,,,,,,,,,,,,,,
627,show_yellow,,,0.0,,,,,,,,,,,,,,,,,,,fl,209,209,yellow,yellow,right,True,2026-04-12_13-36-43.295,,,,,,,,,,,,,,,,,,,,,,,,
628,show_attention_question,,,,,,,0.0,,,,,,,,,,,,,,,fl,209,209,yellow,yellow,right,True,2026-04-12_13-36-43.295,,,,,,,,,,,,,,,,,,,,,,,,
629,answer_attention_question,,,,,,,,0.0,,,,,,,,,,,,,,fl,209,209,yellow,yellow,right,True,2026-04-12_13-36-43.295,,,,,,,,,,,,,,,,,,,,,,,,
630,show_kitchen,,,,,,0.0,,,,,,,,,,,,,,,,fl,210,210,kitchen,kitchen,right,True,2026-04-12_13-36-50.963,,,,,,,,,,,,,,,,,,,,,,,,
631,show_attention_question,,,,,,,0.0,,,,,,,,,,,,,,,fl,210,210,kitchen,kitchen,right,True,2026-04-12_13-36-50.963,,,,,,,,,,,,,,,,,,,,,,,,
632,answer_attention_question,,,,,,,,0.0,,,,,,,,,,,,,,fl,210,210,kitchen,kitchen,right,True,2026-04-12_13-36-50.963,,,,,,,,,,,,,,,,,,,,,,,,
633,show_living_room,,,,0.0,,,,,,,,,,,,,,,,,,fl,211,211,living_room,living_room,right,True,2026-04-12_13-37-00.251,,,,,,,,,,,,,,,,,,,,,,,,
634,show_attention_question,,,,,,,0.0,,,,,,,,,,,,,,,fl,211,211,living_room,living_room,right,True,2026-04-12_13-37-00.251,,,,,,,,,,,,,,,,,,,,,,,,
635,answer_attention_question,,,,,,,,0.0,,,,,,,,,,,,,,fl,211,211,living_room,living_room,right,True,2026-04-12_13-37-00.251,,,,,,,,,,,,,,,,,,,,,,,,
636,show_green,,0.0,,,,,,,,,,,,,,,,,,,,fl,212,212,green,yellow,left,True,2026-04-12_13-37-07.898,,,,,,,,,,,,,,,,,,,,,,,,
637,show_attention_question,,,,,,,0.0,,,,,,,,,,,,,,,fl,212,212,green,yellow,left,True,2026-04-12_13-37-07.898,,,,,,,,,,,,,,,,,,,,,,,,
638,answer_attention_question,,,,,,,,0.0,,,,,,,,,,,,,,fl,212,212,green,yellow,left,True,2026-04-12_13-37-07.898,,,,,,,,,,,,,,,,,,,,,,,,
639,show_living_room,,,,0.0,,,,,,,,,,,,,,,,,,fl,213,213,living_room,kitchen,left,True,2026-04-12_13-37-17.075,,,,,,,,,,,,,,,,,,,,,,,,
640,show_attention_question,,,,,,,0.0,,,,,,,,,,,,,,,fl,213,213,living_room,kitchen,left,True,2026-04-12_13-37-17.075,,,,,,,,,,,,,,,,,,,,,,,,
641,answer_attention_question,,,,,,,,0.0,,,,,,,,,,,,,,fl,213,213,living_room,kitchen,left,True,2026-04-12_13-37-17.075,,,,,,,,,,,,,,,,,,,,,,,,
642,show_red,0.0,,,,,,,,,,,,,,,,,,,,,fl,214,214,red,red,right,True,2026-04-12_13-37-26.482,,,,,,,,,,,,,,,,,,,,,,,,
643,show_attention_question,,,,,,,0.0,,,,,,,,,,,,,,,fl,214,214,red,red,right,True,2026-04-12_13-37-26.482,,,,,,,,,,,,,,,,,,,,,,,,
644,answer_attention_question,,,,,,,,0.0,,,,,,,,,,,,,,fl,214,214,red,red,right,True,2026-04-12_13-37-26.482,,,,,,,,,,,,,,,,,,,,,,,,
645,show_bathroom,,,,,0.0,,,,,,,,,,,,,,,,,fl,215,215,bathroom,kitchen,left,True,2026-04-12_13-37-34.847,,,,,,,,,,,,,,,,,,,,,,,,
646,show_attention_question,,,,,,,0.0,,,,,,,,,,,,,,,fl,215,215,bathroom,kitchen,left,True,2026-04-12_13-37-34.847,,,,,,,,,,,,,,,,,,,,,,,,
647,answer_attention_question,,,,,,,,0.0,,,,,,,,,,,,,,fl,215,215,bathroom,kitchen,left,True,2026-04-12_13-37-34.847,,,,,,,,,,,,,,,,,,,,,,,,
648,show_yellow,,,0.0,,,,,,,,,,,,,,,,,,,fl,216,216,yellow,red,left,True,2026-04-12_13-37-42.417,,,,,,,,,,,,,,,,,,,,,,,,
649,show_attention_question,,,,,,,0.0,,,,,,,,,,,,,,,fl,216,216,yellow,red,left,True,2026-04-12_13-37-42.417,,,,,,,,,,,,,,,,,,,,,,,,
650,answer_attention_question,,,,,,,,0.0,,,,,,,,,,,,,,fl,216,216,yellow,red,left,True,2026-04-12_13-37-42.417,,,,,,,,,,,,,,,,,,,,,,,,
651,show_red,0.0,,,,,,,,,,,,,,,,,,,,,fl,217,217,red,red,right,True,2026-04-12_13-37-49.971,,,,,,,,,,,,,,,,,,,,,,,,
652,show_attention_question,,,,,,,0.0,,,,,,,,,,,,,,,fl,217,217,red,red,right,True,2026-04-12_13-37-49.971,,,,,,,,,,,,,,,,,,,,,,,,
653,answer_attention_question,,,,,,,,0.0,,,,,,,,,,,,,,fl,217,217,red,red,right,True,2026-04-12_13-37-49.971,,,,,,,,,,,,,,,,,,,,,,,,
654,show_living_room,,,,0.0,,,,,,,,,,,,,,,,,,fl,218,218,living_room,bathroom,left,True,2026-04-12_13-37-58.817,,,,,,,,,,,,,,,,,,,,,,,,
655,show_attention_question,,,,,,,0.0,,,,,,,,,,,,,,,fl,218,218,living_room,bathroom,left,True,2026-04-12_13-37-58.817,,,,,,,,,,,,,,,,,,,,,,,,
656,answer_attention_question,,,,,,,,0.0,,,,,,,,,,,,,,fl,218,218,living_room,bathroom,left,True,2026-04-12_13-37-58.817,,,,,,,,,,,,,,,,,,,,,,,,
657,show_living_room,,,,0.0,,,,,,,,,,,,,,,,,,fl,219,219,living_room,kitchen,left,True,2026-04-12_13-38-06.303,,,,,,,,,,,,,,,,,,,,,,,,
658,show_attention_question,,,,,,,0.0,,,,,,,,,,,,,,,fl,219,219,living_room,kitchen,left,True,2026-04-12_13-38-06.303,,,,,,,,,,,,,,,,,,,,,,,,
659,answer_attention_question,,,,,,,,0.0,,,,,,,,,,,,,,fl,219,219,living_room,kitchen,left,True,2026-04-12_13-38-06.303,,,,,,,,,,,,,,,,,,,,,,,,
660,show_yellow,,,0.0,,,,,,,,,,,,,,,,,,,fl,220,220,yellow,green,left,True,2026-04-12_13-38-16.138,,,,,,,,,,,,,,,,,,,,,,,,
661,show_attention_question,,,,,,,0.0,,,,,,,,,,,,,,,fl,220,220,yellow,green,left,True,2026-04-12_13-38-16.138,,,,,,,,,,,,,,,,,,,,,,,,
662,answer_attention_question,,,,,,,,0.0,,,,,,,,,,,,,,fl,220,220,yellow,green,left,True,2026-04-12_13-38-16.138,,,,,,,,,,,,,,,,,,,,,,,,
663,show_bathroom,,,,,0.0,,,,,,,,,,,,,,,,,fl,221,221,bathroom,bathroom,right,True,2026-04-12_13-38-25.407,,,,,,,,,,,,,,,,,,,,,,,,
664,show_attention_question,,,,,,,0.0,,,,,,,,,,,,,,,fl,221,221,bathroom,bathroom,right,True,2026-04-12_13-38-25.407,,,,,,,,,,,,,,,,,,,,,,,,
665,answer_attention_question,,,,,,,,0.0,,,,,,,,,,,,,,fl,221,221,bathroom,bathroom,right,True,2026-04-12_13-38-25.407,,,,,,,,,,,,,,,,,,,,,,,,
666,show_bathroom,,,,,0.0,,,,,,,,,,,,,,,,,fl,222,222,bathroom,kitchen,left,True,2026-04-12_13-38-33.950,,,,,,,,,,,,,,,,,,,,,,,,
667,show_attention_question,,,,,,,0.0,,,,,,,,,,,,,,,fl,222,222,bathroom,kitchen,left,True,2026-04-12_13-38-33.950,,,,,,,,,,,,,,,,,,,,,,,,
668,answer_attention_question,,,,,,,,0.0,,,,,,,,,,,,,,fl,222,222,bathroom,kitchen,left,True,2026-04-12_13-38-33.950,,,,,,,,,,,,,,,,,,,,,,,,
669,show_green,,0.0,,,,,,,,,,,,,,,,,,,,fl,223,223,green,green,right,True,2026-04-12_13-38-43.401,,,,,,,,,,,,,,,,,,,,,,,,
670,show_attention_question,,,,,,,0.0,,,,,,,,,,,,,,,fl,223,223,green,green,right,True,2026-04-12_13-38-43.401,,,,,,,,,,,,,,,,,,,,,,,,
671,answer_attention_question,,,,,,,,0.0,,,,,,,,,,,,,,fl,223,223,green,green,right,True,2026-04-12_13-38-43.401,,,,,,,,,,,,,,,,,,,,,,,,
672,show_bathroom,,,,,0.0,,,,,,,,,,,,,,,,,fl,224,224,bathroom,bathroom,right,True,2026-04-12_13-38-52.228,,,,,,,,,,,,,,,,,,,,,,,,
673,show_attention_question,,,,,,,0.0,,,,,,,,,,,,,,,fl,224,224,bathroom,bathroom,right,True,2026-04-12_13-38-52.228,,,,,,,,,,,,,,,,,,,,,,,,
674,answer_attention_question,,,,,,,,0.0,,,,,,,,,,,,,,fl,224,224,bathroom,bathroom,right,True,2026-04-12_13-38-52.228,,,,,,,,,,,,,,,,,,,,,,,,
675,show_green,,0.0,,,,,,,,,,,,,,,,,,,,fl,225,225,green,green,right,True,2026-04-12_13-39-01.024,,,,,,,,,,,,,,,,,,,,,,,,
676,show_attention_question,,,,,,,0.0,,,,,,,,,,,,,,,fl,225,225,green,green,right,True,2026-04-12_13-39-01.024,,,,,,,,,,,,,,,,,,,,,,,,
677,answer_attention_question,,,,,,,,0.0,,,,,,,,,,,,,,fl,225,225,green,green,right,True,2026-04-12_13-39-01.024,,,,,,,,,,,,,,,,,,,,,,,,
678,show_bathroom,,,,,0.0,,,,,,,,,,,,,,,,,fl,226,226,bathroom,kitchen,left,True,2026-04-12_13-39-09.622,,,,,,,,,,,,,,,,,,,,,,,,
679,show_attention_question,,,,,,,0.0,,,,,,,,,,,,,,,fl,226,226,bathroom,kitchen,left,True,2026-04-12_13-39-09.622,,,,,,,,,,,,,,,,,,,,,,,,
680,answer_attention_question,,,,,,,,0.0,,,,,,,,,,,,,,fl,226,226,bathroom,kitchen,left,True,2026-04-12_13-39-09.622,,,,,,,,,,,,,,,,,,,,,,,,
681,show_yellow,,,0.0,,,,,,,,,,,,,,,,,,,fl,227,227,yellow,yellow,right,True,2026-04-12_13-39-19.046,,,,,,,,,,,,,,,,,,,,,,,,
682,show_attention_question,,,,,,,0.0,,,,,,,,,,,,,,,fl,227,227,yellow,yellow,right,True,2026-04-12_13-39-19.046,,,,,,,,,,,,,,,,,,,,,,,,
683,answer_attention_question,,,,,,,,0.0,,,,,,,,,,,,,,fl,227,227,yellow,yellow,right,True,2026-04-12_13-39-19.046,,,,,,,,,,,,,,,,,,,,,,,,
684,show_green,,0.0,,,,,,,,,,,,,,,,,,,,fl,228,228,green,red,left,True,2026-04-12_13-39-27.038,,,,,,,,,,,,,,,,,,,,,,,,
685,show_attention_question,,,,,,,0.0,,,,,,,,,,,,,,,fl,228,228,green,red,left,True,2026-04-12_13-39-27.038,,,,,,,,,,,,,,,,,,,,,,,,
686,answer_attention_question,,,,,,,,0.0,,,,,,,,,,,,,,fl,228,228,green,red,left,True,2026-04-12_13-39-27.038,,,,,,,,,,,,,,,,,,,,,,,,
687,show_yellow,,,0.0,,,,,,,,,,,,,,,,,,,fl,229,229,yellow,red,left,True,2026-04-12_13-39-35.003,,,,,,,,,,,,,,,,,,,,,,,,
688,show_attention_question,,,,,,,0.0,,,,,,,,,,,,,,,fl,229,229,yellow,red,left,True,2026-04-12_13-39-35.003,,,,,,,,,,,,,,,,,,,,,,,,
689,answer_attention_question,,,,,,,,0.0,,,,,,,,,,,,,,fl,229,229,yellow,red,left,True,2026-04-12_13-39-35.003,,,,,,,,,,,,,,,,,,,,,,,,
690,show_living_room,,,,0.0,,,,,,,,,,,,,,,,,,fl,230,230,living_room,living_room,right,True,2026-04-12_13-39-44.574,,,,,,,,,,,,,,,,,,,,,,,,
691,show_attention_question,,,,,,,0.0,,,,,,,,,,,,,,,fl,230,230,living_room,living_room,right,True,2026-04-12_13-39-44.574,,,,,,,,,,,,,,,,,,,,,,,,
692,answer_attention_question,,,,,,,,0.0,,,,,,,,,,,,,,fl,230,230,living_room,living_room,right,True,2026-04-12_13-39-44.574,,,,,,,,,,,,,,,,,,,,,,,,
693,show_living_room,,,,0.0,,,,,,,,,,,,,,,,,,fl,231,231,living_room,kitchen,left,True,2026-04-12_13-39-54.366,,,,,,,,,,,,,,,,,,,,,,,,
694,show_attention_question,,,,,,,0.0,,,,,,,,,,,,,,,fl,231,231,living_room,kitchen,left,True,2026-04-12_13-39-54.366,,,,,,,,,,,,,,,,,,,,,,,,
695,answer_attention_question,,,,,,,,0.0,,,,,,,,,,,,,,fl,231,231,living_room,kitchen,left,True,2026-04-12_13-39-54.366,,,,,,,,,,,,,,,,,,,,,,,,
696,show_green,,0.0,,,,,,,,,,,,,,,,,,,,fl,232,232,green,yellow,left,True,2026-04-12_13-40-03.255,,,,,,,,,,,,,,,,,,,,,,,,
697,show_attention_question,,,,,,,0.0,,,,,,,,,,,,,,,fl,232,232,green,yellow,left,True,2026-04-12_13-40-03.255,,,,,,,,,,,,,,,,,,,,,,,,
698,answer_attention_question,,,,,,,,0.0,,,,,,,,,,,,,,fl,232,232,green,yellow,left,True,2026-04-12_13-40-03.255,,,,,,,,,,,,,,,,,,,,,,,,
699,show_living_room,,,,0.0,,,,,,,,,,,,,,,,,,fl,233,233,living_room,kitchen,left,True,2026-04-12_13-40-12.439,,,,,,,,,,,,,,,,,,,,,,,,
700,show_attention_question,,,,,,,0.0,,,,,,,,,,,,,,,fl,233,233,living_room,kitchen,left,True,2026-04-12_13-40-12.439,,,,,,,,,,,,,,,,,,,,,,,,
701,answer_attention_question,,,,,,,,0.0,,,,,,,,,,,,,,fl,233,233,living_room,kitchen,left,True,2026-04-12_13-40-12.439,,,,,,,,,,,,,,,,,,,,,,,,
702,show_green,,0.0,,,,,,,,,,,,,,,,,,,,fl,234,234,green,yellow,left,True,2026-04-12_13-40-20.467,,,,,,,,,,,,,,,,,,,,,,,,
703,show_attention_question,,,,,,,0.0,,,,,,,,,,,,,,,fl,234,234,green,yellow,left,True,2026-04-12_13-40-20.467,,,,,,,,,,,,,,,,,,,,,,,,
704,answer_attention_question,,,,,,,,0.0,,,,,,,,,,,,,,fl,234,234,green,yellow,left,True,2026-04-12_13-40-20.467,,,,,,,,,,,,,,,,,,,,,,,,
705,show_bathroom,,,,,0.0,,,,,,,,,,,,,,,,,fl,235,235,bathroom,bathroom,right,True,2026-04-12_13-40-29.379,,,,,,,,,,,,,,,,,,,,,,,,
706,show_attention_question,,,,,,,0.0,,,,,,,,,,,,,,,fl,235,235,bathroom,bathroom,right,True,2026-04-12_13-40-29.379,,,,,,,,,,,,,,,,,,,,,,,,
707,answer_attention_question,,,,,,,,0.0,,,,,,,,,,,,,,fl,235,235,bathroom,bathroom,right,True,2026-04-12_13-40-29.379,,,,,,,,,,,,,,,,,,,,,,,,
708,show_kitchen,,,,,,0.0,,,,,,,,,,,,,,,,fl,236,236,kitchen,bathroom,left,True,2026-04-12_13-40-38.684,,,,,,,,,,,,,,,,,,,,,,,,
709,show_attention_question,,,,,,,0.0,,,,,,,,,,,,,,,fl,236,236,kitchen,bathroom,left,True,2026-04-12_13-40-38.684,,,,,,,,,,,,,,,,,,,,,,,,
710,answer_attention_question,,,,,,,,0.0,,,,,,,,,,,,,,fl,236,236,kitchen,bathroom,left,True,2026-04-12_13-40-38.684,,,,,,,,,,,,,,,,,,,,,,,,
711,show_kitchen,,,,,,0.0,,,,,,,,,,,,,,,,fl,237,237,kitchen,bathroom,left,True,2026-04-12_13-40-47.768,,,,,,,,,,,,,,,,,,,,,,,,
712,show_attention_question,,,,,,,0.0,,,,,,,,,,,,,,,fl,237,237,kitchen,bathroom,left,True,2026-04-12_13-40-47.768,,,,,,,,,,,,,,,,,,,,,,,,
713,answer_attention_question,,,,,,,,0.0,,,,,,,,,,,,,,fl,237,237,kitchen,bathroom,left,True,2026-04-12_13-40-47.768,,,,,,,,,,,,,,,,,,,,,,,,
714,show_living_room,,,,0.0,,,,,,,,,,,,,,,,,,fl,238,238,living_room,bathroom,left,True,2026-04-12_13-40-56.756,,,,,,,,,,,,,,,,,,,,,,,,
715,show_attention_question,,,,,,,0.0,,,,,,,,,,,,,,,fl,238,238,living_room,bathroom,left,True,2026-04-12_13-40-56.756,,,,,,,,,,,,,,,,,,,,,,,,
716,answer_attention_question,,,,,,,,0.0,,,,,,,,,,,,,,fl,238,238,living_room,bathroom,left,True,2026-04-12_13-40-56.756,,,,,,,,,,,,,,,,,,,,,,,,
717,show_living_room,,,,0.0,,,,,,,,,,,,,,,,,,fl,239,239,living_room,living_room,right,True,2026-04-12_13-41-05.951,,,,,,,,,,,,,,,,,,,,,,,,
718,show_attention_question,,,,,,,0.0,,,,,,,,,,,,,,,fl,239,239,living_room,living_room,right,True,2026-04-12_13-41-05.951,,,,,,,,,,,,,,,,,,,,,,,,
719,answer_attention_question,,,,,,,,0.0,,,,,,,,,,,,,,fl,239,239,living_room,living_room,right,True,2026-04-12_13-41-05.951,,,,,,,,,,,,,,,,,,,,,,,,
720,show_yellow,,,0.0,,,,,,,,,,,,,,,,,,,fl,240,240,yellow,yellow,right,True,2026-04-12_13-41-13.427,,,,,,,,,,,,,,,,,,,,,,,,
721,show_attention_question,,,,,,,0.0,,,,,,,,,,,,,,,fl,240,240,yellow,yellow,right,True,2026-04-12_13-41-13.427,,,,,,,,,,,,,,,,,,,,,,,,
722,answer_attention_question,,,,,,,,0.0,,,,,,,,,,,,,,fl,240,240,yellow,yellow,right,True,2026-04-12_13-41-13.427,,,,,,,,,,,,,,,,,,,,,,,,
723,show_green,,0.0,,,,,,,,,,,,,,,,,,,,fl,241,241,green,yellow,left,True,2026-04-12_13-41-20.964,,,,,,,,,,,,,,,,,,,,,,,,
724,show_attention_question,,,,,,,0.0,,,,,,,,,,,,,,,fl,241,241,green,yellow,left,True,2026-04-12_13-41-20.964,,,,,,,,,,,,,,,,,,,,,,,,
725,answer_attention_question,,,,,,,,0.0,,,,,,,,,,,,,,fl,241,241,green,yellow,left,True,2026-04-12_13-41-20.964,,,,,,,,,,,,,,,,,,,,,,,,
726,show_red,0.0,,,,,,,,,,,,,,,,,,,,,fl,242,242,red,yellow,left,True,2026-04-12_13-41-30.368,,,,,,,,,,,,,,,,,,,,,,,,
727,show_attention_question,,,,,,,0.0,,,,,,,,,,,,,,,fl,242,242,red,yellow,left,True,2026-04-12_13-41-30.368,,,,,,,,,,,,,,,,,,,,,,,,
728,answer_attention_question,,,,,,,,0.0,,,,,,,,,,,,,,fl,242,242,red,yellow,left,True,2026-04-12_13-41-30.368,,,,,,,,,,,,,,,,,,,,,,,,
729,show_bathroom,,,,,0.0,,,,,,,,,,,,,,,,,fl,243,243,bathroom,bathroom,right,True,2026-04-12_13-41-38.692,,,,,,,,,,,,,,,,,,,,,,,,
730,show_attention_question,,,,,,,0.0,,,,,,,,,,,,,,,fl,243,243,bathroom,bathroom,right,True,2026-04-12_13-41-38.692,,,,,,,,,,,,,,,,,,,,,,,,
731,answer_attention_question,,,,,,,,0.0,,,,,,,,,,,,,,fl,243,243,bathroom,bathroom,right,True,2026-04-12_13-41-38.692,,,,,,,,,,,,,,,,,,,,,,,,
732,show_red,0.0,,,,,,,,,,,,,,,,,,,,,fl,244,244,red,red,right,True,2026-04-12_13-41-48.107,,,,,,,,,,,,,,,,,,,,,,,,
733,show_attention_question,,,,,,,0.0,,,,,,,,,,,,,,,fl,244,244,red,red,right,True,2026-04-12_13-41-48.107,,,,,,,,,,,,,,,,,,,,,,,,
734,answer_attention_question,,,,,,,,0.0,,,,,,,,,,,,,,fl,244,244,red,red,right,True,2026-04-12_13-41-48.107,,,,,,,,,,,,,,,,,,,,,,,,
735,show_living_room,,,,0.0,,,,,,,,,,,,,,,,,,fl,245,245,living_room,kitchen,left,True,2026-04-12_13-41-55.694,,,,,,,,,,,,,,,,,,,,,,,,
736,show_attention_question,,,,,,,0.0,,,,,,,,,,,,,,,fl,245,245,living_room,kitchen,left,True,2026-04-12_13-41-55.694,,,,,,,,,,,,,,,,,,,,,,,,
737,answer_attention_question,,,,,,,,0.0,,,,,,,,,,,,,,fl,245,245,living_room,kitchen,left,True,2026-04-12_13-41-55.694,,,,,,,,,,,,,,,,,,,,,,,,
738,show_bathroom,,,,,0.0,,,,,,,,,,,,,,,,,fl,246,246,bathroom,bathroom,right,True,2026-04-12_13-42-03.686,,,,,,,,,,,,,,,,,,,,,,,,
739,show_attention_question,,,,,,,0.0,,,,,,,,,,,,,,,fl,246,246,bathroom,bathroom,right,True,2026-04-12_13-42-03.686,,,,,,,,,,,,,,,,,,,,,,,,
740,answer_attention_question,,,,,,,,0.0,,,,,,,,,,,,,,fl,246,246,bathroom,bathroom,right,True,2026-04-12_13-42-03.686,,,,,,,,,,,,,,,,,,,,,,,,
741,show_green,,0.0,,,,,,,,,,,,,,,,,,,,fl,247,247,green,yellow,left,True,2026-04-12_13-42-12.414,,,,,,,,,,,,,,,,,,,,,,,,
742,show_attention_question,,,,,,,0.0,,,,,,,,,,,,,,,fl,247,247,green,yellow,left,True,2026-04-12_13-42-12.414,,,,,,,,,,,,,,,,,,,,,,,,
743,answer_attention_question,,,,,,,,0.0,,,,,,,,,,,,,,fl,247,247,green,yellow,left,True,2026-04-12_13-42-12.414,,,,,,,,,,,,,,,,,,,,,,,,
744,show_green,,0.0,,,,,,,,,,,,,,,,,,,,fl,248,248,green,green,right,True,2026-04-12_13-42-19.853,,,,,,,,,,,,,,,,,,,,,,,,
745,show_attention_question,,,,,,,0.0,,,,,,,,,,,,,,,fl,248,248,green,green,right,True,2026-04-12_13-42-19.853,,,,,,,,,,,,,,,,,,,,,,,,
